# 1304     AichiSR QXAFS
# Start     : 8.9544
# End       : 9.0544
# Dir       : Backward
# Points    : 300
# ScanTime  : 1.01549
# Date      : 13.04.23 22:32
# Ring Cur. : 25.6[mA]
12.7557	12.6118	0.311076	0.237033
12.7562	12.6123	0.30856	0.236294
12.7566	12.6128	0.308595	0.239506
12.7571	12.6132	0.308366	0.241228
12.7576	12.6137	0.309839	0.238115
12.7581	12.6142	0.309379	0.239292
12.7585	12.6146	0.311888	0.240766
12.759	12.6151	0.309367	0.241017
12.7595	12.6156	0.307273	0.240018
12.7599	12.6161	0.310938	0.241259
12.7604	12.6165	0.311865	0.243588
12.7609	12.617	0.310954	0.242662
12.7614	12.6175	0.310973	0.242816
12.7618	12.618	0.311583	0.243533
12.7623	12.6184	0.310225	0.24346
12.7628	12.6189	0.313719	0.242579
12.7632	12.6194	0.312428	0.243895
12.7637	12.6198	0.310156	0.242948
12.7642	12.6203	0.30915	0.24133
12.7647	12.6208	0.310625	0.243233
12.7651	12.6213	0.311856	0.242733
12.7656	12.6217	0.309643	0.242486
12.7661	12.6222	0.311098	0.244984
12.7666	12.6227	0.310089	0.244909
12.767	12.6231	0.309404	0.243169
12.7675	12.6236	0.312288	0.245077
12.768	12.6241	0.314078	0.247015
12.7684	12.6246	0.310371	0.246938
12.7689	12.625	0.309181	0.246906
12.7694	12.6255	0.310698	0.247931
12.7699	12.626	0.313123	0.247052
12.7703	12.6265	0.312081	0.248568
12.7708	12.627	0.31149	0.249738
12.7713	12.6274	0.309427	0.249601
12.7717	12.6279	0.308278	0.247056
12.7722	12.6284	0.313996	0.249343
12.7727	12.6289	0.311479	0.250133
12.7732	12.6293	0.308732	0.249386
12.7736	12.6298	0.309645	0.249148
12.7741	12.6302	0.311345	0.248503
12.7746	12.6307	0.312951	0.24947
12.7751	12.6312	0.311956	0.24921
12.7755	12.6317	0.312771	0.250537
12.776	12.6321	0.311965	0.248994
12.7765	12.6326	0.311218	0.247693
12.7769	12.6331	0.31471	0.250038
12.7774	12.6335	0.314331	0.25021
12.7779	12.634	0.311574	0.249293
12.7784	12.6345	0.311	0.249368
12.7788	12.635	0.309304	0.247677
12.7793	12.6354	0.311747	0.249929
12.7798	12.6359	0.313464	0.251103
12.7802	12.6364	0.312829	0.251915
12.7807	12.6369	0.31085	0.250904
12.7812	12.6373	0.310742	0.249542
12.7817	12.6378	0.315823	0.253576
12.7821	12.6383	0.313849	0.255909
12.7826	12.6387	0.312321	0.254492
12.7831	12.6392	0.312308	0.254463
12.7836	12.6397	0.311458	0.254618
12.784	12.6401	0.315885	0.255064
12.7845	12.6406	0.31233	0.255507
12.785	12.6411	0.313394	0.256955
12.7854	12.6416	0.311258	0.256838
12.7859	12.642	0.311435	0.254766
12.7864	12.6425	0.31375	0.256263
12.7869	12.6429	0.313853	0.257093
12.7873	12.6434	0.311813	0.255302
12.7878	12.6439	0.308489	0.252797
12.7883	12.6443	0.310325	0.2501
12.7887	12.6448	0.314353	0.253104
12.7892	12.6453	0.314748	0.254401
12.7897	12.6458	0.312646	0.253022
12.7902	12.6463	0.309786	0.250346
12.7906	12.6468	0.311183	0.248172
12.7911	12.6472	0.31464	0.248353
12.7916	12.6477	0.314666	0.248523
12.7921	12.6482	0.312876	0.247648
12.7925	12.6487	0.313328	0.243855
12.793	12.6491	0.313606	0.241962
12.7935	12.6496	0.313933	0.240582
12.7939	12.6501	0.313505	0.239222
12.7944	12.6505	0.313889	0.240065
12.7949	12.651	0.313733	0.236315
12.7954	12.6515	0.313347	0.231971
12.7958	12.652	0.315751	0.232148
12.7963	12.6524	0.318921	0.232454
12.7968	12.6529	0.316358	0.231768
12.7972	12.6534	0.314971	0.226767
12.7977	12.6538	0.316056	0.226246
12.7982	12.6543	0.320086	0.224498
12.7987	12.6548	0.316615	0.223892
12.7991	12.6553	0.317244	0.223372
12.7996	12.6558	0.315936	0.220247
12.8001	12.6562	0.314817	0.218489
12.8006	12.6567	0.318041	0.218416
12.801	12.6572	0.316617	0.219898
12.8015	12.6577	0.315968	0.219671
12.802	12.6581	0.316484	0.218495
12.8024	12.6586	0.317673	0.219071
12.8029	12.6591	0.320612	0.220067
12.8034	12.6595	0.319629	0.222
12.8039	12.66	0.320373	0.225694
12.8043	12.6605	0.320343	0.224843
12.8048	12.6609	0.320354	0.225243
12.8053	12.6614	0.322759	0.228495
12.8057	12.6619	0.323548	0.231866
12.8062	12.6624	0.320753	0.231221
12.8067	12.6628	0.319021	0.230969
12.8072	12.6633	0.31987	0.233037
12.8076	12.6637	0.322277	0.235264
12.8081	12.6642	0.322135	0.23842
12.8086	12.6647	0.321705	0.23993
12.8091	12.6652	0.320186	0.240799
12.8095	12.6656	0.320092	0.241979
12.81	12.6661	0.32431	0.245812
12.8105	12.6666	0.323648	0.249044
12.8109	12.6671	0.321213	0.250844
12.8114	12.6676	0.321784	0.251921
12.8119	12.668	0.322987	0.253548
12.8124	12.6685	0.324803	0.255925
12.8128	12.669	0.324385	0.257789
12.8133	12.6694	0.323506	0.262673
12.8138	12.6699	0.32336	0.262875
12.8142	12.6703	0.321767	0.263008
12.8147	12.6708	0.323851	0.265754
12.8152	12.6713	0.326234	0.2706
12.8157	12.6718	0.322418	0.270404
12.8161	12.6722	0.322786	0.272626
12.8166	12.6727	0.325038	0.272492
12.8171	12.6732	0.325304	0.27394
12.8176	12.6736	0.324752	0.277792
12.818	12.6741	0.324875	0.278784
12.8185	12.6746	0.326836	0.278524
12.819	12.6751	0.32447	0.277647
12.8194	12.6755	0.325735	0.279258
12.8199	12.676	0.32625	0.280352
12.8204	12.6765	0.323282	0.280988
12.8209	12.677	0.323776	0.279098
12.8213	12.6775	0.325422	0.281515
12.8218	12.678	0.32647	0.281229
12.8223	12.6784	0.323976	0.280431
12.8227	12.6789	0.326519	0.282549
12.8232	12.6793	0.326177	0.279366
12.8237	12.6798	0.327246	0.277598
12.8242	12.6803	0.327824	0.277002
12.8246	12.6808	0.330979	0.278663
12.8251	12.6812	0.325248	0.274143
12.8256	12.6817	0.325136	0.269169
12.8261	12.6822	0.327077	0.267923
12.8265	12.6826	0.328192	0.266114
12.827	12.6831	0.325968	0.263025
12.8275	12.6836	0.324583	0.260239
12.8279	12.6841	0.323824	0.257659
12.8284	12.6845	0.324567	0.254303
12.8289	12.685	0.327776	0.253283
12.8294	12.6855	0.327308	0.251105
12.8298	12.686	0.326287	0.247814
12.8303	12.6865	0.326272	0.243327
12.8308	12.6869	0.328496	0.239815
12.8312	12.6874	0.329267	0.238266
12.8317	12.6879	0.329492	0.235508
12.8322	12.6884	0.330155	0.233993
12.8327	12.6888	0.327954	0.227689
12.8331	12.6893	0.328842	0.225492
12.8336	12.6897	0.331824	0.226542
12.8341	12.6902	0.331386	0.228072
12.8346	12.6907	0.328105	0.229198
12.835	12.6912	0.326524	0.229771
12.8355	12.6916	0.328649	0.232864
12.836	12.6921	0.32921	0.238411
12.8364	12.6926	0.330254	0.245155
12.8369	12.693	0.330486	0.250145
12.8374	12.6935	0.33065	0.252739
12.8379	12.694	0.328223	0.255431
12.8383	12.6944	0.329689	0.261861
12.8388	12.6949	0.332233	0.266989
12.8393	12.6954	0.329931	0.267223
12.8397	12.6959	0.328061	0.267104
12.8402	12.6963	0.330447	0.266141
12.8407	12.6968	0.330188	0.267765
12.8412	12.6973	0.328759	0.267034
12.8416	12.6978	0.330711	0.266015
12.8421	12.6982	0.329124	0.26113
12.8426	12.6987	0.328165	0.256946
12.8431	12.6992	0.329639	0.255593
12.8435	12.6996	0.333029	0.254595
12.844	12.7001	0.329706	0.250033
12.8445	12.7006	0.328415	0.243576
12.8449	12.701	0.329767	0.240605
12.8454	12.7015	0.329561	0.238023
12.8459	12.702	0.329787	0.23554
12.8464	12.7024	0.330515	0.23459
12.8468	12.7029	0.329391	0.232326
12.8473	12.7034	0.328435	0.231184
12.8478	12.7039	0.328963	0.233385
12.8482	12.7043	0.33237	0.239517
12.8487	12.7048	0.329548	0.243217
12.8492	12.7053	0.328946	0.247156
12.8497	12.7058	0.330992	0.255449
12.8501	12.7063	0.331416	0.265598
12.8506	12.7067	0.332302	0.278081
12.8511	12.7072	0.331065	0.287888
12.8516	12.7077	0.3311	0.298604
12.852	12.7082	0.331618	0.310563
12.8525	12.7086	0.332196	0.325268
12.853	12.7091	0.333603	0.343514
12.8534	12.7096	0.330487	0.354666
12.8539	12.71	0.332516	0.366867
12.8544	12.7105	0.330398	0.377391
12.8549	12.711	0.332099	0.395115
12.8553	12.7115	0.331823	0.407773
12.8558	12.7119	0.332987	0.421507
12.8563	12.7124	0.330567	0.428314
12.8567	12.7129	0.32911	0.436886
12.8572	12.7133	0.333022	0.44877
12.8577	12.7138	0.332736	0.461291
12.8582	12.7143	0.332985	0.467831
12.8586	12.7148	0.331219	0.472372
12.8591	12.7152	0.33394	0.48152
12.8596	12.7157	0.332289	0.493251
12.8601	12.7162	0.332847	0.505071
12.8605	12.7167	0.331538	0.513221
12.861	12.7171	0.331544	0.517386
12.8615	12.7176	0.331201	0.522007
12.8619	12.7181	0.331775	0.527292
12.8624	12.7186	0.33163	0.527233
12.8629	12.719	0.330847	0.52432
12.8634	12.7195	0.331304	0.520367
12.8638	12.7199	0.332374	0.515839
12.8643	12.7204	0.331036	0.514872
12.8648	12.7209	0.330579	0.513972
12.8652	12.7214	0.331245	0.517745
12.8657	12.7218	0.331311	0.523856
12.8662	12.7223	0.330373	0.537651
12.8667	12.7228	0.329573	0.563721
12.8671	12.7232	0.329489	0.602546
12.8676	12.7237	0.328165	0.649054
12.8681	12.7242	0.325462	0.695862
12.8686	12.7246	0.327716	0.749496
12.869	12.7251	0.32598	0.799227
12.8695	12.7256	0.325362	0.841262
12.87	12.7261	0.32708	0.877554
12.8704	12.7265	0.327954	0.898381
12.8709	12.727	0.328726	0.917361
12.8714	12.7275	0.329518	0.930053
12.8719	12.728	0.332262	0.950907
12.8723	12.7284	0.329262	0.954141
12.8728	12.7289	0.329005	0.953987
12.8733	12.7294	0.332475	0.964189
12.8737	12.7298	0.330555	0.971439
12.8742	12.7303	0.32894	0.971934
12.8747	12.7308	0.330504	0.978199
12.8752	12.7313	0.331028	0.981607
12.8756	12.7318	0.329752	0.979031
12.8761	12.7322	0.328856	0.980464
12.8766	12.7327	0.332046	0.991279
12.8771	12.7331	0.330035	0.991705
12.8775	12.7336	0.330009	0.986751
12.878	12.7341	0.331578	0.99282
12.8785	12.7346	0.33299	0.99699
12.8789	12.7351	0.330885	0.997039
12.8794	12.7355	0.332286	1.00019
12.8799	12.736	0.331099	0.998462
12.8804	12.7365	0.332506	0.998694
12.8808	12.737	0.332272	0.999584
12.8813	12.7375	0.331102	1.00421
12.8818	12.7379	0.330679	0.999458
12.8822	12.7384	0.331826	0.999647
12.8827	12.7389	0.333747	1.00448
12.8832	12.7393	0.331096	1.00629
12.8837	12.7398	0.332851	1.00584
12.8841	12.7403	0.332686	1.00932
12.8846	12.7407	0.331257	1.00734
12.8851	12.7412	0.33514	1.00929
12.8856	12.7417	0.333004	1.01081
12.886	12.7422	0.332465	1.01317
12.8865	12.7426	0.33254	1.01376
12.887	12.7431	0.3316	1.00669
12.8874	12.7436	0.33491	1.01193
12.8879	12.744	0.335002	1.01366
12.8884	12.7445	0.333132	1.01647
12.8889	12.745	0.334994	1.01493
12.8893	12.7455	0.332728	1.01146
12.8898	12.7459	0.335711	1.01555
12.8903	12.7464	0.333821	1.01994
12.8907	12.7469	0.334634	1.0195
12.8912	12.7474	0.333492	1.01601
12.8917	12.7479	0.333513	1.01301
12.8922	12.7483	0.336644	1.0229
12.8926	12.7488	0.336918	1.02074
12.8931	12.7492	0.333822	1.02052
12.8936	12.7497	0.336078	1.0236
12.8941	12.7502	0.334169	1.01943
12.8945	12.7506	0.334359	1.01726
12.895	12.7511	0.335268	1.02275
12.8955	12.7516	0.336467	1.02631
12.8959	12.7521	0.334296	1.01547
12.8964	12.7525	0.332448	1.01323
12.8969	12.753	0.336624	1.02098
12.8974	12.7534	0.33521	1.02194
12.8978	12.7539	0.333197	1.02109
12.8983	12.7544	0.335534	1.02321
12.8988	12.7549	0.334349	1.02238
