# 1304     AichiSR QXAFS
# Start     : 8.9544
# End       : 9.0544
# Dir       : Forward
# Points    : 300
# ScanTime  : 1.01549
# Date      : 13.04.23 22:24
# Ring Cur. : 25.4[mA]
12.7557	12.7557	0.397462	1.2118
12.7562	12.7552	0.39834	1.21071
12.7566	12.7548	0.397034	1.20828
12.7571	12.7543	0.395932	1.21317
12.7576	12.7538	0.397407	1.21238
12.7581	12.7533	0.397442	1.2081
12.7585	12.7529	0.398115	1.21013
12.759	12.7524	0.399034	1.2107
12.7595	12.752	0.399299	1.21297
12.7599	12.7515	0.398041	1.21259
12.7604	12.751	0.396846	1.21227
12.7609	12.7505	0.397289	1.21117
12.7614	12.7501	0.398141	1.21256
12.7618	12.7496	0.39836	1.21341
12.7623	12.7491	0.397278	1.21009
12.7628	12.7487	0.398173	1.21188
12.7632	12.7482	0.397996	1.21085
12.7637	12.7478	0.398021	1.21258
12.7642	12.7473	0.39931	1.2122
12.7647	12.7468	0.398388	1.21566
12.7651	12.7463	0.397362	1.21108
12.7656	12.7459	0.397647	1.20894
12.7661	12.7454	0.399537	1.21334
12.7666	12.7449	0.400511	1.21623
12.767	12.7444	0.396819	1.21228
12.7675	12.7439	0.398876	1.20995
12.768	12.7435	0.398759	1.21036
12.7684	12.743	0.39934	1.20922
12.7689	12.7425	0.399263	1.2109
12.7694	12.7421	0.398704	1.21182
12.7699	12.7416	0.399022	1.21025
12.7703	12.7411	0.399141	1.20821
12.7708	12.7407	0.399788	1.21077
12.7713	12.7402	0.399441	1.21038
12.7717	12.7397	0.397398	1.21011
12.7722	12.7392	0.397682	1.20551
12.7727	12.7388	0.399512	1.20723
12.7732	12.7383	0.399869	1.20301
12.7736	12.7378	0.399569	1.20675
12.7741	12.7374	0.399373	1.20954
12.7746	12.7369	0.39987	1.20664
12.7751	12.7364	0.399384	1.20323
12.7755	12.7359	0.399535	1.20427
12.776	12.7354	0.400892	1.20813
12.7765	12.735	0.399385	1.20216
12.7769	12.7345	0.399512	1.20011
12.7774	12.734	0.399332	1.19703
12.7779	12.7335	0.399703	1.19718
12.7784	12.7331	0.400835	1.1984
12.7788	12.7326	0.398166	1.19587
12.7793	12.7321	0.399454	1.19293
12.7798	12.7317	0.400952	1.18645
12.7802	12.7312	0.40005	1.18647
12.7807	12.7307	0.401072	1.18659
12.7812	12.7302	0.398323	1.18259
12.7817	12.7298	0.39939	1.17355
12.7821	12.7293	0.40052	1.1714
12.7826	12.7288	0.400058	1.16931
12.7831	12.7284	0.399587	1.16289
12.7836	12.7279	0.39814	1.15699
12.784	12.7274	0.398015	1.14369
12.7845	12.7269	0.398052	1.1281
12.785	12.7265	0.397341	1.11348
12.7854	12.726	0.399667	1.09792
12.7859	12.7255	0.394724	1.06702
12.7864	12.725	0.392334	1.02292
12.7869	12.7246	0.394628	0.977415
12.7873	12.7241	0.39463	0.92721
12.7878	12.7236	0.395603	0.863954
12.7883	12.7231	0.396547	0.805376
12.7887	12.7227	0.397999	0.747175
12.7892	12.7222	0.398312	0.696591
12.7897	12.7218	0.399886	0.663849
12.7902	12.7213	0.40194	0.642968
12.7906	12.7208	0.400874	0.627524
12.7911	12.7203	0.399995	0.618312
12.7916	12.7199	0.401103	0.618993
12.7921	12.7194	0.40112	0.621607
12.7925	12.7189	0.399294	0.626437
12.793	12.7185	0.400443	0.631774
12.7935	12.718	0.399631	0.63358
12.7939	12.7175	0.400964	0.632822
12.7944	12.7171	0.397559	0.63242
12.7949	12.7166	0.401082	0.627624
12.7954	12.7161	0.39986	0.617158
12.7958	12.7156	0.39847	0.603924
12.7963	12.7151	0.401557	0.594189
12.7968	12.7147	0.399342	0.583234
12.7972	12.7142	0.39819	0.573798
12.7977	12.7137	0.398274	0.563799
12.7982	12.7132	0.399037	0.551406
12.7987	12.7128	0.399823	0.542352
12.7991	12.7123	0.400396	0.530667
12.7996	12.7119	0.400778	0.523249
12.8001	12.7114	0.399397	0.507672
12.8006	12.7109	0.398043	0.49012
12.801	12.7104	0.399453	0.477103
12.8015	12.7099	0.399751	0.461593
12.802	12.7095	0.399237	0.447151
12.8024	12.709	0.398465	0.430166
12.8029	12.7086	0.39965	0.411344
12.8034	12.7081	0.400144	0.395174
12.8039	12.7076	0.400687	0.381084
12.8043	12.7071	0.400206	0.366488
12.8048	12.7066	0.399143	0.350468
12.8053	12.7062	0.399307	0.335446
12.8057	12.7057	0.401106	0.323645
12.8062	12.7052	0.40022	0.312155
12.8067	12.7047	0.400159	0.304988
12.8072	12.7042	0.398241	0.295236
12.8076	12.7038	0.399695	0.287596
12.8081	12.7033	0.399791	0.283538
12.8086	12.7028	0.399219	0.281798
12.8091	12.7024	0.398855	0.281159
12.8095	12.7019	0.3989	0.282365
12.81	12.7014	0.398826	0.2816
12.8105	12.701	0.399037	0.28542
12.8109	12.7005	0.400191	0.289953
12.8114	12.7	0.399234	0.296144
12.8119	12.6995	0.398519	0.298735
12.8124	12.6991	0.398999	0.302511
12.8128	12.6986	0.399948	0.306511
12.8133	12.6982	0.399406	0.311518
12.8138	12.6977	0.398327	0.31588
12.8142	12.6972	0.398634	0.31937
12.8147	12.6967	0.398726	0.319628
12.8152	12.6963	0.399278	0.322306
12.8157	12.6958	0.397891	0.323907
12.8161	12.6953	0.398247	0.325085
12.8166	12.6948	0.397783	0.323104
12.8171	12.6943	0.396611	0.317699
12.8176	12.6939	0.397794	0.313835
12.818	12.6934	0.398334	0.311308
12.8185	12.6929	0.39713	0.307813
12.819	12.6925	0.396432	0.300486
12.8194	12.692	0.396955	0.293244
12.8199	12.6916	0.399418	0.287502
12.8204	12.6911	0.397752	0.285153
12.8209	12.6906	0.397551	0.27991
12.8213	12.6901	0.397216	0.275545
12.8218	12.6897	0.395212	0.270839
12.8223	12.6892	0.396913	0.272645
12.8227	12.6887	0.396649	0.273791
12.8232	12.6883	0.396128	0.275151
12.8237	12.6878	0.394363	0.277223
12.8242	12.6873	0.394237	0.27945
12.8246	12.6868	0.396059	0.283055
12.8251	12.6864	0.396017	0.288781
12.8256	12.6859	0.394243	0.293914
12.8261	12.6854	0.394029	0.295833
12.8265	12.6849	0.394297	0.299733
12.827	12.6844	0.395462	0.302674
12.8275	12.684	0.393965	0.306837
12.8279	12.6835	0.394109	0.310603
12.8284	12.683	0.393609	0.312485
12.8289	12.6826	0.392507	0.315828
12.8294	12.6821	0.395276	0.318829
12.8298	12.6816	0.395544	0.323001
12.8303	12.6812	0.393949	0.325675
12.8308	12.6807	0.394748	0.327959
12.8312	12.6802	0.395162	0.330902
12.8317	12.6797	0.395445	0.331976
12.8322	12.6793	0.395019	0.335317
12.8327	12.6788	0.394407	0.339245
12.8331	12.6783	0.39365	0.33796
12.8336	12.6779	0.395657	0.338209
12.8341	12.6774	0.395317	0.341076
12.8346	12.6769	0.396726	0.340642
12.835	12.6764	0.39429	0.342372
12.8355	12.6759	0.394934	0.34102
12.836	12.6755	0.394756	0.338907
12.8364	12.675	0.394253	0.337741
12.8369	12.6745	0.394418	0.339611
12.8374	12.674	0.394821	0.338589
12.8379	12.6736	0.395065	0.33652
12.8383	12.6731	0.393311	0.333443
12.8388	12.6726	0.394115	0.332685
12.8393	12.6722	0.39432	0.333625
12.8397	12.6717	0.395292	0.33173
12.8402	12.6712	0.394721	0.329377
12.8407	12.6707	0.395741	0.325379
12.8412	12.6703	0.395959	0.324244
12.8416	12.6698	0.393852	0.322636
12.8421	12.6693	0.395554	0.321568
12.8426	12.6689	0.393094	0.317204
12.8431	12.6684	0.395571	0.314345
12.8435	12.6679	0.394691	0.311785
12.844	12.6675	0.393601	0.310805
12.8445	12.667	0.392788	0.308542
12.8449	12.6665	0.395578	0.30526
12.8454	12.666	0.394563	0.300282
12.8459	12.6656	0.394516	0.298391
12.8464	12.6651	0.39342	0.298593
12.8468	12.6646	0.393577	0.296372
12.8473	12.6641	0.393812	0.292886
12.8478	12.6637	0.393749	0.290236
12.8482	12.6632	0.392819	0.289059
12.8487	12.6627	0.394176	0.286335
12.8492	12.6623	0.392226	0.285044
12.8497	12.6618	0.393401	0.282495
12.8501	12.6613	0.392211	0.279781
12.8506	12.6609	0.393307	0.277441
12.8511	12.6604	0.394375	0.277153
12.8516	12.6599	0.390445	0.275054
12.852	12.6595	0.391751	0.272347
12.8525	12.659	0.391915	0.271264
12.853	12.6585	0.391967	0.270208
12.8534	12.6581	0.393362	0.270785
12.8539	12.6576	0.39091	0.27057
12.8544	12.6571	0.392231	0.270177
12.8549	12.6566	0.392651	0.269174
12.8553	12.6562	0.391434	0.270396
12.8558	12.6557	0.392124	0.272053
12.8563	12.6552	0.391176	0.272722
12.8567	12.6547	0.391361	0.271728
12.8572	12.6542	0.392054	0.272881
12.8577	12.6538	0.390928	0.276858
12.8582	12.6533	0.391887	0.278744
12.8586	12.6528	0.389391	0.280232
12.8591	12.6524	0.391121	0.281665
12.8596	12.6519	0.391395	0.284269
12.8601	12.6514	0.392116	0.286344
12.8605	12.6509	0.392124	0.2901
12.861	12.6505	0.389921	0.293024
12.8615	12.65	0.39123	0.293452
12.8619	12.6495	0.39102	0.294764
12.8624	12.6491	0.391054	0.298112
12.8629	12.6486	0.391501	0.30212
12.8634	12.6481	0.388312	0.303268
12.8638	12.6476	0.388792	0.302869
12.8643	12.6472	0.38923	0.303738
12.8648	12.6467	0.388869	0.305814
12.8652	12.6462	0.386585	0.307827
12.8657	12.6457	0.385923	0.310348
12.8662	12.6452	0.386429	0.308346
12.8667	12.6448	0.386406	0.308874
12.8671	12.6443	0.38671	0.313024
12.8676	12.6438	0.388314	0.31394
12.8681	12.6433	0.386794	0.314412
12.8686	12.6429	0.387602	0.314441
12.869	12.6424	0.390416	0.316008
12.8695	12.642	0.389439	0.31669
12.87	12.6415	0.389348	0.317799
12.8704	12.641	0.389122	0.317955
12.8709	12.6405	0.387675	0.314506
12.8714	12.6401	0.389002	0.316418
12.8719	12.6396	0.387871	0.316838
12.8723	12.6391	0.389197	0.31747
12.8728	12.6387	0.387971	0.316311
12.8733	12.6382	0.387418	0.314532
12.8737	12.6377	0.388385	0.313699
12.8742	12.6373	0.387335	0.313173
12.8747	12.6368	0.388217	0.31349
12.8752	12.6363	0.386128	0.312285
12.8756	12.6358	0.386665	0.309296
12.8761	12.6354	0.388148	0.308557
12.8766	12.6349	0.387878	0.309219
12.8771	12.6344	0.386922	0.309596
12.8775	12.6339	0.385495	0.308622
12.878	12.6335	0.385441	0.306478
12.8785	12.633	0.387559	0.306388
12.8789	12.6325	0.385875	0.308598
12.8794	12.6321	0.386668	0.309046
12.8799	12.6316	0.385128	0.30741
12.8804	12.6311	0.384996	0.306517
12.8808	12.6306	0.387136	0.305928
12.8813	12.6302	0.38679	0.308585
12.8818	12.6297	0.385567	0.308927
12.8822	12.6292	0.384159	0.308224
12.8827	12.6288	0.385878	0.307039
12.8832	12.6283	0.385876	0.307985
12.8837	12.6278	0.385901	0.308602
12.8841	12.6274	0.38607	0.30949
12.8846	12.6269	0.384032	0.308186
12.8851	12.6264	0.384071	0.30619
12.8856	12.6259	0.386281	0.30563
12.886	12.6254	0.390473	0.310963
12.8865	12.625	0.386033	0.307514
12.887	12.6245	0.384259	0.305432
12.8874	12.624	0.384477	0.302461
12.8879	12.6235	0.385321	0.302885
12.8884	12.6231	0.384221	0.301145
12.8889	12.6226	0.384236	0.303342
12.8893	12.6221	0.385265	0.301507
12.8898	12.6217	0.384277	0.300289
12.8903	12.6212	0.385433	0.299416
12.8907	12.6207	0.386107	0.299471
12.8912	12.6202	0.383951	0.299613
12.8917	12.6198	0.382547	0.298419
12.8922	12.6193	0.383336	0.297611
12.8926	12.6188	0.385484	0.297477
12.8931	12.6184	0.383429	0.297836
12.8936	12.6179	0.383554	0.298408
12.8941	12.6174	0.382307	0.299256
12.8945	12.6169	0.383274	0.296005
12.895	12.6165	0.384835	0.297749
12.8955	12.616	0.384488	0.299186
12.8959	12.6155	0.383409	0.299751
12.8964	12.615	0.384448	0.297533
12.8969	12.6145	0.384126	0.296526
12.8974	12.6141	0.384767	0.296405
12.8978	12.6136	0.384393	0.296158
12.8983	12.6131	0.383235	0.296606
12.8988	12.6127	0.38363	0.29657
