# 1304     AichiSR QXAFS
# Start     : 8.9544
# End       : 9.0544
# Dir       : Forward
# Points    : 300
# ScanTime  : 1.01549
# Date      : 13.04.23 22:33
# Ring Cur. : 25.6[mA]
12.7557	12.7558	0.402388	1.22268
12.7562	12.7553	0.402138	1.22297
12.7566	12.7548	0.400101	1.22271
12.7571	12.7544	0.39926	1.21916
12.7576	12.7539	0.40102	1.22
12.7581	12.7534	0.401573	1.22001
12.7585	12.753	0.401073	1.22318
12.759	12.7525	0.399273	1.22115
12.7595	12.752	0.400629	1.22033
12.7599	12.7516	0.399691	1.21792
12.7604	12.7511	0.400374	1.21735
12.7609	12.7506	0.399436	1.21989
12.7614	12.7501	0.398055	1.2212
12.7618	12.7497	0.398449	1.21646
12.7623	12.7492	0.399789	1.21403
12.7628	12.7488	0.404831	1.22876
12.7632	12.7483	0.405235	1.2307
12.7637	12.7478	0.399885	1.21955
12.7642	12.7474	0.399641	1.21592
12.7647	12.7469	0.399455	1.21353
12.7651	12.7464	0.40021	1.21248
12.7656	12.7459	0.399904	1.21947
12.7661	12.7454	0.398657	1.21505
12.7666	12.745	0.397995	1.21352
12.767	12.7445	0.399868	1.21199
12.7675	12.744	0.401253	1.21081
12.768	12.7435	0.40039	1.21662
12.7684	12.7431	0.399102	1.21561
12.7689	12.7426	0.39899	1.2095
12.7694	12.7421	0.399438	1.21048
12.7699	12.7417	0.39931	1.2072
12.7703	12.7412	0.399872	1.21351
12.7708	12.7407	0.399074	1.21128
12.7713	12.7402	0.397119	1.20944
12.7717	12.7398	0.397863	1.2071
12.7722	12.7393	0.39903	1.20727
12.7727	12.7389	0.399477	1.21129
12.7732	12.7384	0.398439	1.20974
12.7736	12.7379	0.398561	1.2064
12.7741	12.7374	0.398849	1.20429
12.7746	12.737	0.399372	1.20496
12.7751	12.7365	0.40018	1.20684
12.7755	12.736	0.397035	1.20619
12.776	12.7355	0.400459	1.20366
12.7765	12.735	0.401396	1.20304
12.7769	12.7346	0.401971	1.20207
12.7774	12.7341	0.401321	1.20376
12.7779	12.7336	0.400691	1.20292
12.7784	12.7331	0.400685	1.19632
12.7788	12.7327	0.399701	1.19552
12.7793	12.7322	0.400403	1.19387
12.7798	12.7317	0.400934	1.19412
12.7802	12.7313	0.399816	1.19215
12.7807	12.7308	0.40077	1.18551
12.7812	12.7303	0.401243	1.18296
12.7817	12.7298	0.401762	1.18213
12.7821	12.7294	0.401627	1.18069
12.7826	12.7289	0.399631	1.17554
12.7831	12.7284	0.40087	1.16361
12.7836	12.728	0.401239	1.15864
12.784	12.7275	0.401657	1.1543
12.7845	12.727	0.401487	1.1429
12.785	12.7265	0.398696	1.12613
12.7854	12.7261	0.399312	1.10643
12.7859	12.7256	0.397304	1.07707
12.7864	12.7251	0.395648	1.04379
12.7869	12.7246	0.396663	1.00035
12.7873	12.7242	0.395988	0.94859
12.7878	12.7237	0.395157	0.881418
12.7883	12.7232	0.398513	0.818292
12.7887	12.7228	0.400016	0.765072
12.7892	12.7223	0.402867	0.711776
12.7897	12.7218	0.400095	0.671608
12.7902	12.7214	0.401451	0.643299
12.7906	12.7209	0.40221	0.629283
12.7911	12.7204	0.401771	0.621803
12.7916	12.7199	0.402266	0.622469
12.7921	12.7195	0.401514	0.624996
12.7925	12.719	0.400482	0.626955
12.793	12.7186	0.402103	0.630971
12.7935	12.7181	0.40006	0.638079
12.7939	12.7176	0.40271	0.640428
12.7944	12.7171	0.401132	0.638645
12.7949	12.7167	0.402143	0.630129
12.7954	12.7162	0.402707	0.622562
12.7958	12.7157	0.40284	0.61316
12.7963	12.7152	0.402887	0.603644
12.7968	12.7147	0.401999	0.591974
12.7972	12.7143	0.401539	0.577208
12.7977	12.7138	0.40216	0.567347
12.7982	12.7133	0.403371	0.560279
12.7987	12.7129	0.402857	0.551244
12.7991	12.7124	0.400667	0.539836
12.7996	12.7119	0.401014	0.524388
12.8001	12.7115	0.402642	0.512388
12.8006	12.711	0.401828	0.500512
12.801	12.7105	0.402019	0.486299
12.8015	12.71	0.402386	0.470244
12.802	12.7096	0.401394	0.452526
12.8024	12.7091	0.4034	0.436352
12.8029	12.7086	0.403397	0.420197
12.8034	12.7082	0.403629	0.40457
12.8039	12.7077	0.402219	0.386675
12.8043	12.7072	0.401637	0.370001
12.8048	12.7067	0.401694	0.353147
12.8053	12.7062	0.402697	0.341345
12.8057	12.7058	0.403625	0.330814
12.8062	12.7053	0.40349	0.317664
12.8067	12.7048	0.402207	0.305156
12.8072	12.7043	0.403068	0.29669
12.8076	12.7038	0.403012	0.292101
12.8081	12.7034	0.403319	0.289277
12.8086	12.7029	0.402469	0.284277
12.8091	12.7024	0.402265	0.281355
12.8095	12.702	0.402813	0.281795
12.81	12.7015	0.402692	0.284875
12.8105	12.701	0.401648	0.289042
12.8109	12.7006	0.402054	0.292397
12.8114	12.7001	0.402957	0.294597
12.8119	12.6996	0.402926	0.299421
12.8124	12.6992	0.402763	0.304532
12.8128	12.6987	0.401631	0.310586
12.8133	12.6982	0.40328	0.31398
12.8138	12.6978	0.401976	0.316479
12.8142	12.6973	0.403398	0.320186
12.8147	12.6968	0.401403	0.32382
12.8152	12.6963	0.401413	0.327554
12.8157	12.6959	0.403395	0.327337
12.8161	12.6954	0.401585	0.325335
12.8166	12.6949	0.402323	0.324752
12.8171	12.6944	0.402067	0.323688
12.8176	12.694	0.401422	0.320755
12.818	12.6935	0.401697	0.315743
12.8185	12.693	0.402292	0.309469
12.819	12.6926	0.403367	0.304915
12.8194	12.6921	0.402239	0.299217
12.8199	12.6916	0.401157	0.295633
12.8204	12.6912	0.402448	0.288471
12.8209	12.6907	0.400361	0.281663
12.8213	12.6902	0.404101	0.277645
12.8218	12.6897	0.401902	0.276668
12.8223	12.6893	0.401423	0.276085
12.8227	12.6888	0.400988	0.27515
12.8232	12.6884	0.401803	0.275701
12.8237	12.6879	0.402875	0.279308
12.8242	12.6874	0.400952	0.282443
12.8246	12.6869	0.400686	0.288536
12.8251	12.6864	0.400242	0.290574
12.8256	12.686	0.399708	0.293658
12.8261	12.6855	0.400573	0.298629
12.8265	12.685	0.399728	0.304189
12.827	12.6845	0.398395	0.309118
12.8275	12.684	0.398899	0.31084
12.8279	12.6836	0.39749	0.312497
12.8284	12.6831	0.399634	0.316633
12.8289	12.6826	0.398333	0.319276
12.8294	12.6822	0.39754	0.32348
12.8298	12.6817	0.398523	0.325936
12.8303	12.6812	0.399718	0.327195
12.8308	12.6808	0.401601	0.331292
12.8312	12.6803	0.401282	0.334323
12.8317	12.6798	0.398324	0.338169
12.8322	12.6793	0.399421	0.339739
12.8327	12.6789	0.399755	0.34112
12.8331	12.6784	0.40152	0.342132
12.8336	12.6779	0.402206	0.345388
12.8341	12.6775	0.400466	0.346938
12.8346	12.677	0.399564	0.345964
12.835	12.6765	0.398842	0.344217
12.8355	12.676	0.401662	0.344405
12.836	12.6755	0.400196	0.346275
12.8364	12.6751	0.400107	0.346157
12.8369	12.6746	0.401045	0.343435
12.8374	12.6741	0.400435	0.340127
12.8379	12.6736	0.401215	0.340189
12.8383	12.6732	0.400213	0.340631
12.8388	12.6727	0.399599	0.341271
12.8393	12.6722	0.398792	0.336953
12.8397	12.6718	0.398794	0.333332
12.8402	12.6713	0.399742	0.332994
12.8407	12.6708	0.400579	0.332198
12.8412	12.6703	0.399363	0.329733
12.8416	12.6699	0.39851	0.326988
12.8421	12.6694	0.399052	0.323537
12.8426	12.669	0.401631	0.32042
12.8431	12.6685	0.399358	0.319264
12.8435	12.668	0.397383	0.317925
12.844	12.6676	0.398808	0.314747
12.8445	12.6671	0.399077	0.309986
12.8449	12.6666	0.400471	0.30921
12.8454	12.6661	0.399646	0.307582
12.8459	12.6656	0.397964	0.304215
12.8464	12.6652	0.399228	0.301726
12.8468	12.6647	0.39855	0.298181
12.8473	12.6642	0.399167	0.296374
12.8478	12.6637	0.398135	0.296272
12.8482	12.6633	0.397872	0.294304
12.8487	12.6628	0.400055	0.291101
12.8492	12.6624	0.397565	0.287478
12.8497	12.6619	0.399942	0.285585
12.8501	12.6614	0.398873	0.285145
12.8506	12.6609	0.397313	0.284013
12.8511	12.6605	0.398122	0.282174
12.8516	12.66	0.397636	0.278742
12.852	12.6595	0.398074	0.276545
12.8525	12.6591	0.397587	0.278061
12.853	12.6586	0.396381	0.274767
12.8534	12.6581	0.397377	0.272937
12.8539	12.6577	0.395361	0.272112
12.8544	12.6572	0.398727	0.271906
12.8549	12.6567	0.39651	0.27448
12.8553	12.6562	0.395634	0.273846
12.8558	12.6557	0.396092	0.272802
12.8563	12.6553	0.396454	0.274876
12.8567	12.6548	0.39756	0.276011
12.8572	12.6543	0.398721	0.27859
12.8577	12.6538	0.396239	0.281924
12.8582	12.6534	0.396978	0.281459
12.8586	12.6529	0.396383	0.282756
12.8591	12.6524	0.396525	0.285585
12.8596	12.652	0.397761	0.288982
12.8601	12.6515	0.396364	0.291631
12.8605	12.651	0.396291	0.293094
12.861	12.6505	0.397099	0.293318
12.8615	12.6501	0.397232	0.296141
12.8619	12.6496	0.39731	0.300532
12.8624	12.6491	0.396201	0.303921
12.8629	12.6487	0.395231	0.304245
12.8634	12.6482	0.395574	0.305215
12.8638	12.6477	0.395234	0.307033
12.8643	12.6472	0.395545	0.310227
12.8648	12.6468	0.39255	0.312048
12.8652	12.6463	0.391868	0.311619
12.8657	12.6458	0.392311	0.311776
12.8662	12.6453	0.391511	0.31409
12.8667	12.6448	0.392248	0.316597
12.8671	12.6444	0.391225	0.317667
12.8676	12.6439	0.391848	0.318179
12.8681	12.6434	0.392913	0.317466
12.8686	12.6429	0.393757	0.319777
12.869	12.6425	0.395015	0.321697
12.8695	12.642	0.394086	0.322607
12.87	12.6416	0.394749	0.320937
12.8704	12.6411	0.395055	0.321491
12.8709	12.6406	0.395417	0.322531
12.8714	12.6401	0.395159	0.323316
12.8719	12.6397	0.394571	0.323055
12.8723	12.6392	0.394246	0.320575
12.8728	12.6387	0.396415	0.31911
12.8733	12.6383	0.394732	0.320169
12.8737	12.6378	0.395841	0.321385
12.8742	12.6373	0.392371	0.319208
12.8747	12.6369	0.394003	0.318535
12.8752	12.6364	0.396299	0.315632
12.8756	12.6359	0.393855	0.314299
12.8761	12.6354	0.393225	0.317789
12.8766	12.635	0.393109	0.316054
12.8771	12.6345	0.393615	0.314853
12.8775	12.634	0.394233	0.312543
12.878	12.6335	0.39316	0.313784
12.8785	12.6331	0.39509	0.315186
12.8789	12.6326	0.393376	0.314857
12.8794	12.6321	0.393012	0.311632
12.8799	12.6317	0.393595	0.313295
12.8804	12.6312	0.392119	0.312924
12.8808	12.6307	0.392814	0.314269
12.8813	12.6302	0.391323	0.313595
12.8818	12.6298	0.392162	0.312551
12.8822	12.6293	0.392052	0.311755
12.8827	12.6289	0.39287	0.313872
12.8832	12.6284	0.393149	0.316266
12.8837	12.6279	0.392262	0.314803
12.8841	12.6274	0.392727	0.313527
12.8846	12.627	0.392924	0.312512
12.8851	12.6265	0.390968	0.313294
12.8856	12.626	0.393534	0.313148
12.886	12.6255	0.391155	0.312695
12.8865	12.625	0.391535	0.310404
12.887	12.6246	0.392785	0.310087
12.8874	12.6241	0.391665	0.310826
12.8879	12.6236	0.392221	0.309911
12.8884	12.6231	0.391007	0.307421
12.8889	12.6227	0.390887	0.306639
12.8893	12.6222	0.390991	0.3051
12.8898	12.6217	0.390208	0.304599
12.8903	12.6213	0.390902	0.307075
12.8907	12.6208	0.390739	0.304379
12.8912	12.6203	0.38991	0.303983
12.8917	12.6198	0.390501	0.303475
12.8922	12.6194	0.389467	0.303166
12.8926	12.6189	0.390617	0.305417
12.8931	12.6184	0.388865	0.303949
12.8936	12.618	0.388523	0.302597
12.8941	12.6175	0.390796	0.301803
12.8945	12.617	0.388751	0.301876
12.895	12.6165	0.389791	0.303484
12.8955	12.616	0.389089	0.30397
12.8959	12.6156	0.388386	0.300737
12.8964	12.6151	0.389969	0.300545
12.8969	12.6146	0.386477	0.300421
12.8974	12.6141	0.388799	0.303382
12.8978	12.6137	0.387486	0.301633
12.8983	12.6132	0.387076	0.299391
12.8988	12.6127	0.3907	0.298449
