# 1304     AichiSR QXAFS
# Start     : 8.9544
# End       : 9.0544
# Dir       : Forward
# Points    : 300
# ScanTime  : 1.01549
# Date      : 13.04.23 22:28
# Ring Cur. : 25.4[mA]
12.7557	12.7558	0.401109	1.21816
12.7562	12.7553	0.400671	1.22053
12.7566	12.7548	0.398906	1.21783
12.7571	12.7543	0.398844	1.21658
12.7576	12.7538	0.400833	1.21949
12.7581	12.7534	0.400821	1.21747
12.7585	12.7529	0.400244	1.22164
12.759	12.7525	0.398476	1.21667
12.7595	12.752	0.398512	1.21641
12.7599	12.7515	0.402037	1.2173
12.7604	12.7511	0.400931	1.22063
12.7609	12.7506	0.398035	1.22067
12.7614	12.7501	0.39913	1.21638
12.7618	12.7496	0.399471	1.21586
12.7623	12.7492	0.401181	1.21557
12.7628	12.7487	0.401192	1.21916
12.7632	12.7483	0.401006	1.21983
12.7637	12.7478	0.399478	1.21704
12.7642	12.7473	0.400064	1.21435
12.7647	12.7468	0.401005	1.21492
12.7651	12.7464	0.401533	1.22093
12.7656	12.7459	0.399421	1.21594
12.7661	12.7454	0.399464	1.21701
12.7666	12.7449	0.400169	1.21197
12.767	12.7444	0.400382	1.2142
12.7675	12.744	0.400448	1.21469
12.768	12.7435	0.398774	1.21593
12.7684	12.743	0.399444	1.21336
12.7689	12.7426	0.396846	1.20781
12.7694	12.7421	0.40116	1.21268
12.7699	12.7416	0.401963	1.21355
12.7703	12.7412	0.399011	1.21377
12.7708	12.7407	0.399834	1.2105
12.7713	12.7402	0.399314	1.2088
12.7717	12.7397	0.399762	1.20892
12.7722	12.7393	0.401817	1.21201
12.7727	12.7388	0.401527	1.21139
12.7732	12.7384	0.399519	1.20828
12.7736	12.7379	0.398191	1.20511
12.7741	12.7374	0.400993	1.20483
12.7746	12.7369	0.400969	1.20967
12.7751	12.7364	0.398719	1.20577
12.7755	12.736	0.400019	1.20334
12.776	12.7355	0.399454	1.19849
12.7765	12.735	0.400524	1.20086
12.7769	12.7345	0.399711	1.2018
12.7774	12.734	0.399311	1.2039
12.7779	12.7336	0.39951	1.20214
12.7784	12.7331	0.398846	1.19418
12.7788	12.7326	0.401416	1.19308
12.7793	12.7322	0.400048	1.19655
12.7798	12.7317	0.398113	1.18815
12.7802	12.7312	0.39796	1.1838
12.7807	12.7307	0.399482	1.17962
12.7812	12.7302	0.399356	1.17587
12.7817	12.7298	0.399761	1.17436
12.7821	12.7293	0.397688	1.17334
12.7826	12.7289	0.398332	1.16208
12.7831	12.7284	0.397784	1.1532
12.7836	12.7279	0.398491	1.14907
12.784	12.7274	0.399763	1.14343
12.7845	12.727	0.395647	1.12567
12.785	12.7265	0.396231	1.10676
12.7854	12.726	0.395665	1.0883
12.7859	12.7255	0.396161	1.05712
12.7864	12.7251	0.393361	1.022
12.7869	12.7246	0.391697	0.977722
12.7873	12.7241	0.393091	0.915757
12.7878	12.7236	0.392781	0.854249
12.7883	12.7232	0.394692	0.79443
12.7887	12.7227	0.396831	0.741805
12.7892	12.7223	0.396098	0.690669
12.7897	12.7218	0.396162	0.65642
12.7902	12.7213	0.395555	0.630135
12.7906	12.7208	0.397391	0.619156
12.7911	12.7204	0.397928	0.614978
12.7916	12.7199	0.395796	0.61739
12.7921	12.7194	0.397211	0.616754
12.7925	12.719	0.396423	0.620887
12.793	12.7185	0.398734	0.625983
12.7935	12.718	0.398637	0.631222
12.7939	12.7176	0.396217	0.630412
12.7944	12.7171	0.397228	0.627059
12.7949	12.7166	0.396813	0.619707
12.7954	12.7161	0.398007	0.612168
12.7958	12.7157	0.396617	0.599584
12.7963	12.7152	0.395564	0.589975
12.7968	12.7147	0.396314	0.577941
12.7972	12.7142	0.395866	0.565738
12.7977	12.7137	0.39799	0.55723
12.7982	12.7133	0.397941	0.549232
12.7987	12.7128	0.397095	0.538668
12.7991	12.7124	0.396328	0.524428
12.7996	12.7119	0.395469	0.513668
12.8001	12.7114	0.397804	0.50172
12.8006	12.7109	0.396934	0.488756
12.801	12.7105	0.396063	0.474771
12.8015	12.71	0.39562	0.456444
12.802	12.7095	0.39576	0.440253
12.8024	12.7091	0.396808	0.422829
12.8029	12.7086	0.397286	0.410162
12.8034	12.7081	0.394615	0.391803
12.8039	12.7076	0.395681	0.37459
12.8043	12.7072	0.395842	0.359355
12.8048	12.7067	0.396546	0.345381
12.8053	12.7062	0.396171	0.33259
12.8057	12.7057	0.396031	0.321356
12.8062	12.7052	0.395552	0.307728
12.8067	12.7048	0.394619	0.298623
12.8072	12.7043	0.397405	0.292216
12.8076	12.7038	0.396596	0.286342
12.8081	12.7033	0.394182	0.282417
12.8086	12.7029	0.393684	0.278009
12.8091	12.7024	0.396263	0.27691
12.8095	12.7019	0.396266	0.277867
12.81	12.7015	0.396444	0.280829
12.8105	12.701	0.394332	0.284644
12.8109	12.7005	0.39419	0.285622
12.8114	12.7	0.39375	0.289919
12.8119	12.6996	0.395411	0.296382
12.8124	12.6991	0.396501	0.302875
12.8128	12.6987	0.393852	0.304958
12.8133	12.6982	0.395367	0.307627
12.8138	12.6977	0.395419	0.310647
12.8142	12.6972	0.394724	0.313715
12.8147	12.6968	0.396031	0.319701
12.8152	12.6963	0.394842	0.319641
12.8157	12.6958	0.394262	0.320482
12.8161	12.6953	0.393288	0.318432
12.8166	12.6948	0.395639	0.318749
12.8171	12.6944	0.394636	0.317542
12.8176	12.6939	0.392326	0.312879
12.818	12.6934	0.393251	0.305721
12.8185	12.693	0.39387	0.300955
12.819	12.6925	0.394501	0.296664
12.8194	12.6921	0.394153	0.292358
12.8199	12.6916	0.392257	0.286191
12.8204	12.6911	0.393144	0.280357
12.8209	12.6906	0.393223	0.274626
12.8213	12.6902	0.393786	0.272288
12.8218	12.6897	0.394391	0.271627
12.8223	12.6892	0.392065	0.27147
12.8227	12.6888	0.392425	0.269915
12.8232	12.6883	0.392916	0.271013
12.8237	12.6878	0.394004	0.273442
12.8242	12.6874	0.393132	0.279615
12.8246	12.6869	0.392124	0.282546
12.8251	12.6864	0.390872	0.28572
12.8256	12.6859	0.391502	0.288194
12.8261	12.6854	0.392306	0.293838
12.8265	12.685	0.392218	0.298931
12.827	12.6845	0.390182	0.301022
12.8275	12.684	0.390653	0.303462
12.8279	12.6835	0.39126	0.306806
12.8284	12.6831	0.390034	0.309835
12.8289	12.6826	0.389529	0.313752
12.8294	12.6821	0.390626	0.317096
12.8298	12.6817	0.390082	0.319168
12.8303	12.6812	0.390833	0.321059
12.8308	12.6807	0.390646	0.325133
12.8312	12.6802	0.392603	0.329966
12.8317	12.6798	0.391239	0.331702
12.8322	12.6793	0.391375	0.33235
12.8327	12.6788	0.391211	0.333753
12.8331	12.6784	0.391474	0.335647
12.8336	12.6779	0.393184	0.33846
12.8341	12.6774	0.391892	0.338717
12.8346	12.6769	0.38968	0.335968
12.835	12.6765	0.391219	0.335008
12.8355	12.676	0.393101	0.337117
12.836	12.6755	0.392432	0.338972
12.8364	12.675	0.391299	0.338663
12.8369	12.6745	0.391291	0.335022
12.8374	12.6741	0.391212	0.332926
12.8379	12.6736	0.391603	0.332662
12.8383	12.6731	0.391716	0.333822
12.8388	12.6726	0.391595	0.332067
12.8393	12.6722	0.389926	0.329248
12.8397	12.6717	0.390452	0.325845
12.8402	12.6713	0.39198	0.325403
12.8407	12.6708	0.390829	0.323896
12.8412	12.6703	0.390125	0.323049
12.8416	12.6698	0.389031	0.319347
12.8421	12.6694	0.389904	0.31569
12.8426	12.6689	0.389559	0.313481
12.8431	12.6684	0.390973	0.313237
12.8435	12.668	0.388983	0.309445
12.844	12.6675	0.389356	0.305787
12.8445	12.667	0.388832	0.302383
12.8449	12.6665	0.390031	0.300411
12.8454	12.6661	0.391209	0.30024
12.8459	12.6656	0.388936	0.296486
12.8464	12.6651	0.388463	0.292628
12.8468	12.6646	0.39076	0.29098
12.8473	12.6642	0.389377	0.288747
12.8478	12.6637	0.389473	0.288827
12.8482	12.6632	0.389104	0.288042
12.8487	12.6628	0.388954	0.282896
12.8492	12.6623	0.389522	0.279726
12.8497	12.6619	0.38828	0.279878
12.8501	12.6614	0.390175	0.279316
12.8506	12.6609	0.387646	0.276161
12.8511	12.6604	0.387049	0.274221
12.8516	12.6599	0.389956	0.271107
12.852	12.6595	0.38718	0.26972
12.8525	12.659	0.387967	0.268572
12.853	12.6586	0.387029	0.267799
12.8534	12.6581	0.385649	0.266328
12.8539	12.6576	0.386582	0.264517
12.8544	12.6571	0.386765	0.265875
12.8549	12.6567	0.387012	0.267219
12.8553	12.6562	0.383759	0.265989
12.8558	12.6557	0.386409	0.266558
12.8563	12.6552	0.388362	0.267186
12.8567	12.6547	0.385363	0.269257
12.8572	12.6543	0.386115	0.272114
12.8577	12.6538	0.386766	0.27352
12.8582	12.6533	0.386204	0.27421
12.8586	12.6529	0.385885	0.275366
12.8591	12.6524	0.388442	0.279775
12.8596	12.6519	0.38556	0.283096
12.8601	12.6515	0.3857	0.284737
12.8605	12.651	0.38573	0.284453
12.861	12.6505	0.388176	0.287284
12.8615	12.65	0.386887	0.290785
12.8619	12.6495	0.386366	0.294146
12.8624	12.6491	0.385426	0.295248
12.8629	12.6486	0.385537	0.29539
12.8634	12.6481	0.386197	0.296625
12.8638	12.6477	0.385542	0.299791
12.8643	12.6472	0.384898	0.30287
12.8648	12.6467	0.382024	0.302813
12.8652	12.6462	0.381985	0.302943
12.8657	12.6458	0.382189	0.303948
12.8662	12.6453	0.382222	0.305801
12.8667	12.6448	0.381181	0.309169
12.8671	12.6443	0.38125	0.30842
12.8676	12.6438	0.381084	0.30788
12.8681	12.6434	0.384953	0.311306
12.8686	12.6429	0.386521	0.313201
12.869	12.6424	0.384275	0.313233
12.8695	12.642	0.382819	0.312619
12.87	12.6415	0.383719	0.312441
12.8704	12.641	0.386467	0.312487
12.8709	12.6406	0.3841	0.313061
12.8714	12.6401	0.38298	0.313813
12.8719	12.6396	0.384285	0.313778
12.8723	12.6392	0.383657	0.311039
12.8728	12.6387	0.383774	0.308706
12.8733	12.6382	0.383485	0.310413
12.8737	12.6378	0.383028	0.311636
12.8742	12.6373	0.382377	0.309532
12.8747	12.6368	0.380297	0.306073
12.8752	12.6363	0.38488	0.30788
12.8756	12.6359	0.382168	0.306835
12.8761	12.6354	0.383691	0.308638
12.8766	12.6349	0.382592	0.306539
12.8771	12.6344	0.382368	0.304024
12.8775	12.634	0.384112	0.304699
12.878	12.6335	0.382409	0.304344
12.8785	12.633	0.383779	0.305941
12.8789	12.6326	0.382249	0.305674
12.8794	12.6321	0.383673	0.303627
12.8799	12.6316	0.38424	0.304508
12.8804	12.6312	0.382591	0.30563
12.8808	12.6307	0.383538	0.307441
12.8813	12.6302	0.384523	0.306134
12.8818	12.6297	0.383132	0.305743
12.8822	12.6293	0.383885	0.304945
12.8827	12.6288	0.384748	0.307324
12.8832	12.6283	0.385857	0.308221
12.8837	12.6279	0.384166	0.307447
12.8841	12.6274	0.382126	0.305372
12.8846	12.6269	0.384983	0.306121
12.8851	12.6264	0.384295	0.306813
12.8856	12.626	0.383391	0.307683
12.886	12.6255	0.383361	0.305957
12.8865	12.625	0.382911	0.303561
12.887	12.6245	0.385002	0.304631
12.8874	12.624	0.38319	0.303412
12.8879	12.6236	0.383996	0.305377
12.8884	12.6231	0.383396	0.302411
12.8889	12.6226	0.383534	0.301234
12.8893	12.6222	0.383779	0.300308
12.8898	12.6217	0.383872	0.30096
12.8903	12.6212	0.383292	0.300963
12.8907	12.6207	0.383908	0.300752
12.8912	12.6203	0.384703	0.298443
12.8917	12.6198	0.384107	0.297887
12.8922	12.6193	0.383697	0.297389
12.8926	12.6189	0.384557	0.301055
12.8931	12.6184	0.383836	0.298367
12.8936	12.6179	0.383649	0.297593
12.8941	12.6174	0.384646	0.298232
12.8945	12.617	0.383033	0.298424
12.895	12.6165	0.385059	0.300455
12.8955	12.616	0.384831	0.299013
12.8959	12.6155	0.382757	0.296666
12.8964	12.6151	0.385042	0.297673
12.8969	12.6146	0.385706	0.297687
12.8974	12.6141	0.38297	0.298886
12.8978	12.6136	0.385342	0.297386
12.8983	12.6132	0.383146	0.295998
12.8988	12.6127	0.386189	0.295488
