# 1304     AichiSR QXAFS
# Start     : 8.9544
# End       : 9.0544
# Dir       : Backward
# Points    : 300
# ScanTime  : 1.01549
# Date      : 13.04.23 22:28
# Ring Cur. : 25.4[mA]
12.7557	12.6118	0.297631	0.226717
12.7562	12.6123	0.295612	0.228834
12.7566	12.6127	0.295591	0.228329
12.7571	12.6132	0.296108	0.227991
12.7576	12.6136	0.298058	0.229725
12.7581	12.6141	0.298843	0.232384
12.7585	12.6146	0.300156	0.233717
12.759	12.6151	0.295639	0.231347
12.7595	12.6155	0.298	0.232686
12.7599	12.616	0.299564	0.23286
12.7604	12.6165	0.299895	0.233986
12.7609	12.617	0.298631	0.23326
12.7614	12.6174	0.296649	0.233025
12.7618	12.6179	0.298145	0.231869
12.7623	12.6184	0.29934	0.231297
12.7628	12.6189	0.298534	0.234009
12.7632	12.6193	0.300062	0.234486
12.7637	12.6198	0.29896	0.234467
12.7642	12.6203	0.297511	0.230609
12.7647	12.6207	0.301463	0.232999
12.7651	12.6212	0.301594	0.23533
12.7656	12.6217	0.29978	0.234521
12.7661	12.6222	0.300645	0.235797
12.7666	12.6226	0.298431	0.234034
12.767	12.6231	0.300484	0.234798
12.7675	12.6236	0.298678	0.235796
12.768	12.624	0.300195	0.239864
12.7684	12.6245	0.299052	0.236595
12.7689	12.625	0.296755	0.234981
12.7694	12.6255	0.300458	0.23744
12.7699	12.626	0.301077	0.239335
12.7703	12.6264	0.299691	0.240331
12.7708	12.6269	0.300643	0.24132
12.7713	12.6274	0.299303	0.239968
12.7717	12.6279	0.300342	0.239555
12.7722	12.6283	0.301118	0.241441
12.7727	12.6288	0.303208	0.244459
12.7732	12.6293	0.299686	0.240342
12.7736	12.6297	0.298117	0.239496
12.7741	12.6302	0.301544	0.240701
12.7746	12.6307	0.301434	0.240514
12.7751	12.6312	0.299573	0.242435
12.7755	12.6316	0.298178	0.240025
12.776	12.6321	0.297717	0.237913
12.7765	12.6326	0.3023	0.239233
12.7769	12.633	0.301638	0.241129
12.7774	12.6335	0.302761	0.242382
12.7779	12.634	0.300646	0.241497
12.7784	12.6344	0.300987	0.239703
12.7788	12.6349	0.303887	0.242068
12.7793	12.6354	0.303526	0.242319
12.7798	12.6359	0.303333	0.24348
12.7802	12.6363	0.30243	0.24366
12.7807	12.6368	0.300097	0.241325
12.7812	12.6373	0.301063	0.24194
12.7817	12.6378	0.303251	0.244316
12.7821	12.6382	0.302103	0.246442
12.7826	12.6387	0.301736	0.245867
12.7831	12.6392	0.299967	0.244018
12.7836	12.6396	0.304958	0.246704
12.784	12.6401	0.302522	0.246769
12.7845	12.6406	0.302134	0.248203
12.785	12.641	0.30253	0.247873
12.7854	12.6415	0.301981	0.246264
12.7859	12.642	0.304465	0.246732
12.7864	12.6424	0.303972	0.247814
12.7869	12.6429	0.304154	0.248974
12.7873	12.6434	0.299637	0.245598
12.7878	12.6438	0.300695	0.243247
12.7883	12.6443	0.302638	0.244648
12.7887	12.6448	0.300991	0.243029
12.7892	12.6453	0.29996	0.243321
12.7897	12.6458	0.298618	0.242919
12.7902	12.6462	0.299105	0.240277
12.7906	12.6467	0.299951	0.239413
12.7911	12.6472	0.302032	0.240486
12.7916	12.6477	0.303752	0.241278
12.7921	12.6481	0.302235	0.238085
12.7925	12.6486	0.301681	0.235324
12.793	12.6491	0.304682	0.234142
12.7935	12.6496	0.305018	0.234104
12.7939	12.65	0.301288	0.232281
12.7944	12.6505	0.301901	0.229811
12.7949	12.651	0.302953	0.227145
12.7954	12.6515	0.304698	0.225097
12.7958	12.6519	0.303576	0.225275
12.7963	12.6524	0.305296	0.223806
12.7968	12.6529	0.303638	0.221938
12.7972	12.6533	0.303222	0.218744
12.7977	12.6538	0.305809	0.218182
12.7982	12.6543	0.306084	0.217485
12.7987	12.6547	0.304788	0.215771
12.7991	12.6552	0.302939	0.214323
12.7996	12.6557	0.303846	0.212109
12.8001	12.6562	0.304623	0.209473
12.8006	12.6567	0.30554	0.211601
12.801	12.6571	0.307669	0.212872
12.8015	12.6576	0.304205	0.210775
12.802	12.6581	0.302929	0.208651
12.8024	12.6586	0.306531	0.209806
12.8029	12.659	0.30534	0.212452
12.8034	12.6595	0.305187	0.213214
12.8039	12.6599	0.30545	0.21372
12.8043	12.6604	0.304707	0.212566
12.8048	12.6609	0.30821	0.216645
12.8053	12.6614	0.309524	0.220319
12.8057	12.6619	0.307079	0.220361
12.8062	12.6623	0.307002	0.220302
12.8067	12.6628	0.304616	0.219749
12.8072	12.6632	0.310231	0.223072
12.8076	12.6637	0.306929	0.225493
12.8081	12.6642	0.307051	0.226952
12.8086	12.6646	0.308029	0.229651
12.8091	12.6651	0.305442	0.22863
12.8095	12.6656	0.307251	0.229243
12.81	12.6661	0.308063	0.233952
12.8105	12.6666	0.309179	0.236933
12.8109	12.667	0.305822	0.236429
12.8114	12.6675	0.3052	0.23803
12.8119	12.668	0.308377	0.241034
12.8124	12.6685	0.309047	0.243983
12.8128	12.6689	0.306226	0.246705
12.8133	12.6694	0.308339	0.248817
12.8138	12.6698	0.306745	0.248086
12.8142	12.6703	0.307739	0.250072
12.8147	12.6708	0.307738	0.253847
12.8152	12.6713	0.309336	0.257295
12.8157	12.6717	0.308423	0.257603
12.8161	12.6722	0.305303	0.255737
12.8166	12.6726	0.309647	0.25937
12.8171	12.6731	0.309464	0.26149
12.8176	12.6736	0.309023	0.263135
12.818	12.6741	0.307321	0.26316
12.8185	12.6745	0.309284	0.263386
12.819	12.675	0.310716	0.263547
12.8194	12.6755	0.309985	0.265804
12.8199	12.676	0.311704	0.269881
12.8204	12.6765	0.310158	0.269377
12.8209	12.6769	0.307946	0.265465
12.8213	12.6774	0.311825	0.268336
12.8218	12.6779	0.311326	0.270441
12.8223	12.6784	0.311638	0.269595
12.8227	12.6788	0.309306	0.267697
12.8232	12.6793	0.31023	0.265477
12.8237	12.6798	0.311487	0.264937
12.8242	12.6802	0.311825	0.264502
12.8246	12.6807	0.313029	0.265147
12.8251	12.6812	0.310095	0.260743
12.8256	12.6817	0.311385	0.256952
12.8261	12.6821	0.313817	0.256733
12.8265	12.6826	0.313113	0.254856
12.827	12.6831	0.311747	0.254728
12.8275	12.6835	0.311562	0.250181
12.8279	12.684	0.31157	0.247636
12.8284	12.6845	0.313969	0.244431
12.8289	12.685	0.312837	0.243426
12.8294	12.6855	0.31412	0.241823
12.8298	12.6859	0.31379	0.237785
12.8303	12.6864	0.309899	0.231757
12.8308	12.6869	0.313539	0.229369
12.8312	12.6874	0.313492	0.229212
12.8317	12.6878	0.314426	0.225625
12.8322	12.6883	0.314078	0.221989
12.8327	12.6888	0.313561	0.218798
12.8331	12.6892	0.315763	0.216326
12.8336	12.6897	0.315765	0.217469
12.8341	12.6902	0.317314	0.219183
12.8346	12.6906	0.315456	0.219581
12.835	12.6911	0.313843	0.218415
12.8355	12.6916	0.315903	0.223346
12.836	12.6921	0.3171	0.229263
12.8364	12.6925	0.316899	0.233291
12.8369	12.693	0.316021	0.2374
12.8374	12.6934	0.315642	0.239643
12.8379	12.6939	0.316273	0.244326
12.8383	12.6944	0.316073	0.249243
12.8388	12.6949	0.317034	0.254736
12.8393	12.6953	0.31469	0.253246
12.8397	12.6958	0.313223	0.253198
12.8402	12.6963	0.316382	0.257278
12.8407	12.6968	0.316925	0.257252
12.8412	12.6972	0.315528	0.25771
12.8416	12.6977	0.315567	0.254166
12.8421	12.6982	0.315772	0.251086
12.8426	12.6986	0.31643	0.248176
12.8431	12.6991	0.317065	0.246873
12.8435	12.6996	0.317305	0.244773
12.844	12.7	0.31551	0.239628
12.8445	12.7005	0.314084	0.23332
12.8449	12.701	0.31548	0.231932
12.8454	12.7015	0.316031	0.229981
12.8459	12.7019	0.31388	0.226665
12.8464	12.7024	0.316175	0.2235
12.8468	12.7029	0.31649	0.223168
12.8473	12.7033	0.31519	0.222775
12.8478	12.7038	0.31688	0.224234
12.8482	12.7043	0.319062	0.230668
12.8487	12.7048	0.318437	0.232011
12.8492	12.7053	0.315851	0.23512
12.8497	12.7057	0.319427	0.243385
12.8501	12.7062	0.319875	0.25539
12.8506	12.7067	0.316535	0.263326
12.8511	12.7072	0.317583	0.272571
12.8516	12.7077	0.318896	0.282947
12.852	12.7081	0.317672	0.29369
12.8525	12.7086	0.317394	0.308133
12.853	12.7091	0.321477	0.326399
12.8534	12.7095	0.320323	0.335429
12.8539	12.71	0.317335	0.346763
12.8544	12.7105	0.319773	0.362695
12.8549	12.7109	0.320542	0.378954
12.8553	12.7114	0.319049	0.389958
12.8558	12.7119	0.321331	0.401861
12.8563	12.7124	0.320235	0.409183
12.8567	12.7128	0.318436	0.418391
12.8572	12.7133	0.318913	0.43321
12.8577	12.7138	0.321041	0.441277
12.8582	12.7142	0.318342	0.444571
12.8586	12.7147	0.31802	0.451523
12.8591	12.7152	0.321673	0.463203
12.8596	12.7157	0.319438	0.470182
12.8601	12.7162	0.319254	0.480998
12.8605	12.7166	0.319279	0.491899
12.861	12.7171	0.319038	0.494882
12.8615	12.7176	0.319592	0.501886
12.8619	12.7181	0.320322	0.510113
12.8624	12.7185	0.320226	0.513598
12.8629	12.719	0.319806	0.507155
12.8634	12.7194	0.318558	0.501927
12.8638	12.7199	0.318364	0.497627
12.8643	12.7204	0.319488	0.49573
12.8648	12.7208	0.318833	0.496212
12.8652	12.7213	0.318143	0.494742
12.8657	12.7218	0.317334	0.499584
12.8662	12.7223	0.317025	0.511718
12.8667	12.7227	0.318239	0.536189
12.8671	12.7232	0.317652	0.570725
12.8676	12.7236	0.317247	0.610969
12.8681	12.7241	0.31643	0.657081
12.8686	12.7246	0.316453	0.708835
12.869	12.7251	0.314599	0.757578
12.8695	12.7256	0.313666	0.799081
12.87	12.726	0.316878	0.836246
12.8704	12.7265	0.317547	0.860985
12.8709	12.727	0.315448	0.875289
12.8714	12.7275	0.316151	0.893805
12.8719	12.7279	0.318638	0.914672
12.8723	12.7284	0.316927	0.915668
12.8728	12.7289	0.31785	0.918072
12.8733	12.7293	0.319836	0.925321
12.8737	12.7298	0.317808	0.933531
12.8742	12.7303	0.317314	0.93987
12.8747	12.7307	0.318997	0.942374
12.8752	12.7312	0.319756	0.945225
12.8756	12.7317	0.31862	0.940861
12.8761	12.7322	0.31849	0.95173
12.8766	12.7326	0.320841	0.959877
12.8771	12.7331	0.320248	0.954788
12.8775	12.7336	0.319509	0.953126
12.878	12.7341	0.320829	0.955417
12.8785	12.7345	0.318908	0.958003
12.8789	12.735	0.31818	0.961231
12.8794	12.7355	0.319537	0.962701
12.8799	12.736	0.319864	0.960163
12.8804	12.7365	0.317427	0.959431
12.8808	12.7369	0.31857	0.961622
12.8813	12.7374	0.320229	0.970247
12.8818	12.7379	0.320764	0.967811
12.8822	12.7384	0.32078	0.969099
12.8827	12.7388	0.32154	0.971242
12.8832	12.7393	0.323189	0.975801
12.8837	12.7398	0.320008	0.973588
12.8841	12.7402	0.32083	0.971366
12.8846	12.7407	0.320902	0.974358
12.8851	12.7412	0.319969	0.967806
12.8856	12.7417	0.321384	0.974091
12.886	12.7421	0.320643	0.975811
12.8865	12.7426	0.321372	0.97467
12.887	12.7431	0.321001	0.970013
12.8874	12.7435	0.321357	0.97606
12.8879	12.744	0.323245	0.977056
12.8884	12.7445	0.320744	0.978789
12.8889	12.7449	0.32246	0.980052
12.8893	12.7454	0.323168	0.982774
12.8898	12.7459	0.321636	0.981053
12.8903	12.7464	0.322751	0.981349
12.8907	12.7468	0.323377	0.987749
12.8912	12.7473	0.322442	0.981974
12.8917	12.7478	0.323286	0.980852
12.8922	12.7483	0.32456	0.982297
12.8926	12.7487	0.323589	0.982655
12.8931	12.7492	0.320441	0.983047
12.8936	12.7497	0.322104	0.984503
12.8941	12.7501	0.323455	0.980211
12.8945	12.7506	0.319813	0.976909
12.895	12.7511	0.324515	0.988104
12.8955	12.7516	0.324147	0.990915
12.8959	12.752	0.324553	0.986815
12.8964	12.7525	0.323586	0.984544
12.8969	12.7529	0.32513	0.991839
12.8974	12.7534	0.32342	0.987337
12.8978	12.7539	0.32135	0.986662
12.8983	12.7543	0.324732	0.991153
12.8988	12.7548	0.324443	0.985993
