# 1304     AichiSR QXAFS
# Start     : 8.9544
# End       : 9.0544
# Dir       : Backward
# Points    : 300
# ScanTime  : 1.01549
# Date      : 13.04.23 22:30
# Ring Cur. : 25.7[mA]
12.7557	12.6118	0.294049	0.223856
12.7562	12.6123	0.294962	0.225792
12.7566	12.6127	0.296896	0.228308
12.7571	12.6132	0.297401	0.2301
12.7576	12.6136	0.295534	0.229352
12.7581	12.6141	0.295706	0.228882
12.7585	12.6146	0.29924	0.230837
12.759	12.6151	0.29688	0.230106
12.7595	12.6156	0.299089	0.23477
12.7599	12.616	0.301179	0.234225
12.7604	12.6165	0.298159	0.231361
12.7609	12.617	0.297789	0.230726
12.7614	12.6175	0.298675	0.232507
12.7618	12.6179	0.299871	0.234702
12.7623	12.6184	0.296963	0.231521
12.7628	12.6189	0.296777	0.230297
12.7632	12.6193	0.298431	0.231608
12.7637	12.6198	0.298451	0.231677
12.7642	12.6203	0.297334	0.232771
12.7647	12.6208	0.299921	0.233566
12.7651	12.6212	0.298696	0.231557
12.7656	12.6217	0.297785	0.231488
12.7661	12.6222	0.297682	0.23468
12.7666	12.6226	0.299198	0.236083
12.767	12.6231	0.300532	0.23576
12.7675	12.6236	0.298592	0.234067
12.768	12.6241	0.299778	0.235403
12.7684	12.6245	0.298288	0.236106
12.7689	12.625	0.298299	0.23778
12.7694	12.6255	0.299065	0.238528
12.7699	12.626	0.297799	0.235883
12.7703	12.6265	0.297248	0.235759
12.7708	12.6269	0.297785	0.237992
12.7713	12.6274	0.297705	0.240208
12.7717	12.6279	0.296758	0.238082
12.7722	12.6284	0.297339	0.238197
12.7727	12.6288	0.298507	0.238785
12.7732	12.6293	0.300141	0.240571
12.7736	12.6298	0.298631	0.241531
12.7741	12.6302	0.300783	0.240425
12.7746	12.6307	0.299502	0.239759
12.7751	12.6312	0.298752	0.23963
12.7755	12.6317	0.299698	0.239178
12.776	12.6321	0.298135	0.240556
12.7765	12.6326	0.299416	0.239723
12.7769	12.633	0.2987	0.238094
12.7774	12.6335	0.298796	0.236713
12.7779	12.634	0.298602	0.237869
12.7784	12.6345	0.296765	0.24009
12.7788	12.6349	0.300779	0.239551
12.7793	12.6354	0.298461	0.239053
12.7798	12.6359	0.303344	0.243078
12.7802	12.6364	0.302813	0.243948
12.7807	12.6368	0.300703	0.242472
12.7812	12.6373	0.301268	0.2426
12.7817	12.6378	0.303097	0.244124
12.7821	12.6383	0.302641	0.243432
12.7826	12.6387	0.301102	0.244989
12.7831	12.6392	0.299322	0.243721
12.7836	12.6396	0.301084	0.245391
12.784	12.6401	0.301583	0.244794
12.7845	12.6406	0.300747	0.244584
12.785	12.6411	0.300099	0.244752
12.7854	12.6415	0.300023	0.246318
12.7859	12.642	0.299275	0.24483
12.7864	12.6425	0.301601	0.244203
12.7869	12.6429	0.302184	0.245974
12.7873	12.6434	0.299213	0.24547
12.7878	12.6438	0.29808	0.245238
12.7883	12.6443	0.302319	0.244867
12.7887	12.6448	0.302663	0.243632
12.7892	12.6453	0.298529	0.24158
12.7897	12.6458	0.301757	0.242977
12.7902	12.6462	0.30096	0.242695
12.7906	12.6467	0.300237	0.239152
12.7911	12.6472	0.300106	0.238558
12.7916	12.6477	0.302919	0.238464
12.7921	12.6482	0.301148	0.23886
12.7925	12.6486	0.30211	0.237961
12.793	12.6491	0.303855	0.235062
12.7935	12.6496	0.305696	0.232916
12.7939	12.65	0.303887	0.231953
12.7944	12.6505	0.30641	0.232676
12.7949	12.651	0.306841	0.231323
12.7954	12.6515	0.306116	0.227727
12.7958	12.6519	0.307809	0.226375
12.7963	12.6524	0.308196	0.226717
12.7968	12.6529	0.305184	0.222521
12.7972	12.6533	0.30627	0.221365
12.7977	12.6538	0.306966	0.220789
12.7982	12.6543	0.306727	0.216846
12.7987	12.6548	0.305488	0.215802
12.7991	12.6552	0.306403	0.216013
12.7996	12.6557	0.307037	0.214801
12.8001	12.6562	0.306824	0.211729
12.8006	12.6567	0.30804	0.21243
12.801	12.6572	0.309618	0.212761
12.8015	12.6576	0.30932	0.213059
12.802	12.6581	0.308586	0.214337
12.8024	12.6586	0.309722	0.213721
12.8029	12.659	0.308637	0.213699
12.8034	12.6595	0.309547	0.21569
12.8039	12.66	0.309866	0.217786
12.8043	12.6604	0.308597	0.217998
12.8048	12.6609	0.309043	0.217317
12.8053	12.6614	0.310002	0.218321
12.8057	12.6619	0.309238	0.220309
12.8062	12.6623	0.308501	0.222341
12.8067	12.6628	0.308789	0.225129
12.8072	12.6632	0.311072	0.226595
12.8076	12.6637	0.312055	0.227062
12.8081	12.6642	0.31043	0.229531
12.8086	12.6647	0.31339	0.233985
12.8091	12.6651	0.31412	0.236261
12.8095	12.6656	0.312339	0.23597
12.81	12.6661	0.313998	0.237292
12.8105	12.6666	0.314103	0.239936
12.8109	12.6671	0.312657	0.241611
12.8114	12.6675	0.312204	0.244584
12.8119	12.668	0.313217	0.24487
12.8124	12.6685	0.312213	0.245762
12.8128	12.6689	0.311453	0.247635
12.8133	12.6694	0.312775	0.251862
12.8138	12.6698	0.312784	0.254982
12.8142	12.6703	0.311857	0.253691
12.8147	12.6708	0.31369	0.257478
12.8152	12.6713	0.315941	0.259546
12.8157	12.6717	0.313742	0.260824
12.8161	12.6722	0.313543	0.263157
12.8166	12.6727	0.315324	0.264909
12.8171	12.6731	0.315355	0.264881
12.8176	12.6736	0.313181	0.265307
12.818	12.6741	0.314904	0.268791
12.8185	12.6746	0.315006	0.27037
12.819	12.675	0.313219	0.268418
12.8194	12.6755	0.314728	0.269329
12.8199	12.676	0.314555	0.271045
12.8204	12.6765	0.31316	0.271293
12.8209	12.677	0.31395	0.272889
12.8213	12.6774	0.315686	0.271941
12.8218	12.6779	0.315897	0.271609
12.8223	12.6784	0.313167	0.272474
12.8227	12.6789	0.314061	0.272914
12.8232	12.6793	0.315927	0.272753
12.8237	12.6798	0.31686	0.271256
12.8242	12.6803	0.316789	0.268127
12.8246	12.6807	0.316968	0.267365
12.8251	12.6812	0.314739	0.264256
12.8256	12.6817	0.314978	0.262355
12.8261	12.6822	0.317685	0.25944
12.8265	12.6826	0.317903	0.256873
12.827	12.6831	0.312116	0.253349
12.8275	12.6836	0.314076	0.25347
12.8279	12.684	0.315354	0.251389
12.8284	12.6845	0.316091	0.247892
12.8289	12.685	0.318869	0.245036
12.8294	12.6855	0.316599	0.242926
12.8298	12.6859	0.316918	0.240384
12.8303	12.6864	0.317568	0.237948
12.8308	12.6869	0.318685	0.233731
12.8312	12.6874	0.319241	0.22975
12.8317	12.6879	0.317572	0.226877
12.8322	12.6883	0.317027	0.225674
12.8327	12.6888	0.317595	0.221769
12.8331	12.6893	0.317443	0.219543
12.8336	12.6897	0.319592	0.220217
12.8341	12.6902	0.317204	0.218606
12.8346	12.6907	0.316898	0.220287
12.835	12.6911	0.31661	0.223458
12.8355	12.6916	0.31808	0.225511
12.836	12.6921	0.319218	0.22849
12.8364	12.6925	0.318639	0.23319
12.8369	12.693	0.319035	0.239633
12.8374	12.6935	0.318171	0.244872
12.8379	12.6939	0.318027	0.246489
12.8383	12.6944	0.321564	0.251881
12.8388	12.6949	0.319718	0.255123
12.8393	12.6954	0.318403	0.256687
12.8397	12.6958	0.31766	0.258776
12.8402	12.6963	0.318989	0.257676
12.8407	12.6968	0.319797	0.258645
12.8412	12.6973	0.316101	0.256951
12.8416	12.6977	0.31609	0.256683
12.8421	12.6982	0.317081	0.254394
12.8426	12.6987	0.316996	0.249847
12.8431	12.6991	0.319632	0.249082
12.8435	12.6996	0.31936	0.244699
12.844	12.7001	0.316772	0.240882
12.8445	12.7005	0.318202	0.238693
12.8449	12.701	0.318817	0.234479
12.8454	12.7015	0.319266	0.230745
12.8459	12.702	0.316105	0.227237
12.8464	12.7024	0.317907	0.226309
12.8468	12.7029	0.317886	0.224991
12.8473	12.7034	0.316721	0.222762
12.8478	12.7038	0.321027	0.225212
12.8482	12.7043	0.318874	0.228966
12.8487	12.7048	0.317194	0.233499
12.8492	12.7053	0.316753	0.237614
12.8497	12.7058	0.320409	0.245455
12.8501	12.7062	0.321475	0.254434
12.8506	12.7067	0.319564	0.263078
12.8511	12.7072	0.318198	0.272942
12.8516	12.7077	0.319259	0.286661
12.852	12.7082	0.318024	0.295788
12.8525	12.7086	0.322436	0.311004
12.853	12.7091	0.320322	0.323652
12.8534	12.7095	0.318796	0.336855
12.8539	12.71	0.319966	0.350059
12.8544	12.7105	0.320349	0.363487
12.8549	12.711	0.322092	0.378097
12.8553	12.7114	0.319043	0.388812
12.8558	12.7119	0.320018	0.401571
12.8563	12.7124	0.318954	0.411028
12.8567	12.7128	0.318713	0.421186
12.8572	12.7133	0.322049	0.43383
12.8577	12.7138	0.321648	0.442258
12.8582	12.7143	0.318983	0.448887
12.8586	12.7147	0.319276	0.455393
12.8591	12.7152	0.319903	0.464058
12.8596	12.7157	0.322597	0.474658
12.8601	12.7162	0.322493	0.482317
12.8605	12.7166	0.318573	0.488081
12.861	12.7171	0.318912	0.496128
12.8615	12.7176	0.319198	0.504309
12.8619	12.7181	0.321313	0.508688
12.8624	12.7185	0.319294	0.506814
12.8629	12.719	0.316957	0.50537
12.8634	12.7195	0.316607	0.501309
12.8638	12.7199	0.319505	0.500274
12.8643	12.7204	0.322052	0.495599
12.8648	12.7209	0.319492	0.493183
12.8652	12.7213	0.319938	0.497571
12.8657	12.7218	0.319162	0.500101
12.8662	12.7223	0.319409	0.514263
12.8667	12.7227	0.319168	0.538666
12.8671	12.7232	0.319799	0.572558
12.8676	12.7237	0.316265	0.608311
12.8681	12.7241	0.314429	0.653188
12.8686	12.7246	0.315215	0.708731
12.869	12.7251	0.316185	0.760207
12.8695	12.7256	0.313774	0.794729
12.87	12.726	0.312873	0.833169
12.8704	12.7265	0.316085	0.858017
12.8709	12.727	0.31648	0.87798
12.8714	12.7275	0.319552	0.898019
12.8719	12.7279	0.320007	0.912808
12.8723	12.7284	0.317417	0.915161
12.8728	12.7289	0.316367	0.919473
12.8733	12.7293	0.320525	0.935974
12.8737	12.7298	0.319211	0.934791
12.8742	12.7303	0.317656	0.933668
12.8747	12.7308	0.318073	0.943146
12.8752	12.7312	0.318625	0.940223
12.8756	12.7317	0.316395	0.938487
12.8761	12.7322	0.320259	0.949743
12.8766	12.7327	0.319464	0.953625
12.8771	12.7331	0.317653	0.948453
12.8775	12.7336	0.318817	0.950532
12.878	12.7341	0.319817	0.96071
12.8785	12.7345	0.321628	0.961678
12.8789	12.735	0.320151	0.964587
12.8794	12.7355	0.320149	0.966304
12.8799	12.736	0.320044	0.961242
12.8804	12.7365	0.321241	0.966321
12.8808	12.737	0.320939	0.96654
12.8813	12.7374	0.318873	0.965979
12.8818	12.7379	0.317535	0.963121
12.8822	12.7384	0.318382	0.964397
12.8827	12.7388	0.320532	0.969076
12.8832	12.7393	0.320746	0.967397
12.8837	12.7398	0.321318	0.97059
12.8841	12.7402	0.320212	0.974216
12.8846	12.7407	0.319883	0.970483
12.8851	12.7412	0.32111	0.973714
12.8856	12.7417	0.323417	0.978998
12.886	12.7421	0.322818	0.978409
12.8865	12.7426	0.321063	0.977212
12.887	12.7431	0.318845	0.97282
12.8874	12.7435	0.32241	0.978743
12.8879	12.744	0.324275	0.98121
12.8884	12.7445	0.321134	0.97698
12.8889	12.745	0.319735	0.976102
12.8893	12.7454	0.319429	0.975045
12.8898	12.7459	0.321289	0.978369
12.8903	12.7464	0.323619	0.981484
12.8907	12.7469	0.322759	0.98217
12.8912	12.7473	0.321192	0.982183
12.8917	12.7478	0.322363	0.980942
12.8922	12.7483	0.324312	0.985037
12.8926	12.7488	0.325421	0.987919
12.8931	12.7492	0.323594	0.986637
12.8936	12.7497	0.322471	0.98902
12.8941	12.7501	0.321778	0.980058
12.8945	12.7506	0.321393	0.978388
12.895	12.7511	0.324362	0.985613
12.8955	12.7516	0.324936	0.988457
12.8959	12.752	0.319793	0.980114
12.8964	12.7525	0.31988	0.971328
12.8969	12.7529	0.323862	0.983413
12.8974	12.7534	0.32357	0.988301
12.8978	12.7539	0.323145	0.983854
12.8983	12.7544	0.322753	0.987368
12.8988	12.7548	0.324296	0.987097
