# 1304     AichiSR QXAFS
# Start     : 8.9544
# End       : 9.0544
# Dir       : Forward
# Points    : 300
# ScanTime  : 1.01549
# Date      : 13.04.23 22:23
# Ring Cur. : 25.4[mA]
12.7557	12.7557	0.397783	1.20785
12.7562	12.7552	0.397206	1.20873
12.7566	12.7548	0.396365	1.20985
12.7571	12.7543	0.396649	1.2075
12.7576	12.7538	0.395489	1.20445
12.7581	12.7533	0.396647	1.20414
12.7585	12.7529	0.397182	1.209
12.759	12.7524	0.396278	1.20873
12.7595	12.752	0.39529	1.2057
12.7599	12.7515	0.397158	1.20704
12.7604	12.751	0.396806	1.20677
12.7609	12.7505	0.396767	1.21038
12.7614	12.7501	0.394475	1.20961
12.7618	12.7496	0.396098	1.20644
12.7623	12.7491	0.396647	1.20472
12.7628	12.7487	0.397578	1.20819
12.7632	12.7482	0.398389	1.21088
12.7637	12.7478	0.396198	1.21041
12.7642	12.7473	0.396439	1.20743
12.7647	12.7468	0.397007	1.20627
12.7651	12.7463	0.398135	1.20671
12.7656	12.7458	0.398369	1.20932
12.7661	12.7454	0.398015	1.20936
12.7666	12.7449	0.397626	1.20861
12.767	12.7444	0.397936	1.20793
12.7675	12.7439	0.398479	1.20979
12.768	12.7435	0.398962	1.21038
12.7684	12.743	0.397694	1.21046
12.7689	12.7425	0.397072	1.20486
12.7694	12.7421	0.398416	1.20898
12.7699	12.7416	0.398936	1.20818
12.7703	12.7411	0.398474	1.21093
12.7708	12.7406	0.397432	1.20943
12.7713	12.7402	0.39828	1.20762
12.7717	12.7397	0.398668	1.204
12.7722	12.7392	0.399588	1.20221
12.7727	12.7388	0.399337	1.20506
12.7732	12.7383	0.398063	1.2093
12.7736	12.7378	0.398348	1.20181
12.7741	12.7374	0.3992	1.20158
12.7746	12.7369	0.399115	1.20126
12.7751	12.7364	0.399984	1.20309
12.7755	12.7359	0.398108	1.20271
12.776	12.7354	0.399552	1.20058
12.7765	12.735	0.398351	1.19765
12.7769	12.7345	0.397723	1.19716
12.7774	12.734	0.398533	1.19922
12.7779	12.7335	0.399481	1.19771
12.7784	12.7331	0.399033	1.19165
12.7788	12.7326	0.39888	1.1913
12.7793	12.7321	0.399846	1.18891
12.7798	12.7317	0.399759	1.18884
12.7802	12.7312	0.399296	1.18613
12.7807	12.7307	0.400017	1.18193
12.7812	12.7302	0.400662	1.17713
12.7817	12.7298	0.399285	1.17522
12.7821	12.7293	0.401231	1.17732
12.7826	12.7288	0.39812	1.16862
12.7831	12.7284	0.397587	1.15993
12.7836	12.7279	0.400502	1.15188
12.784	12.7274	0.397669	1.14089
12.7845	12.7269	0.398804	1.12972
12.785	12.7265	0.396389	1.11295
12.7854	12.726	0.395908	1.08928
12.7859	12.7255	0.394939	1.06159
12.7864	12.725	0.393972	1.02475
12.7869	12.7245	0.393386	0.981518
12.7873	12.7241	0.393662	0.924421
12.7878	12.7236	0.39473	0.862469
12.7883	12.7231	0.397451	0.802969
12.7887	12.7227	0.39936	0.74892
12.7892	12.7222	0.399066	0.701577
12.7897	12.7218	0.398826	0.66451
12.7902	12.7213	0.399451	0.63961
12.7906	12.7208	0.399932	0.623904
12.7911	12.7203	0.398426	0.619892
12.7916	12.7199	0.400731	0.61783
12.7921	12.7194	0.397609	0.622379
12.7925	12.7189	0.399858	0.624366
12.793	12.7185	0.399335	0.627861
12.7935	12.718	0.400103	0.633168
12.7939	12.7175	0.40066	0.634336
12.7944	12.7171	0.398816	0.633281
12.7949	12.7166	0.400161	0.623195
12.7954	12.7161	0.399413	0.615407
12.7958	12.7156	0.400276	0.606054
12.7963	12.7151	0.400481	0.595181
12.7968	12.7147	0.399364	0.582089
12.7972	12.7142	0.398427	0.571831
12.7977	12.7137	0.400812	0.562038
12.7982	12.7132	0.399836	0.55251
12.7987	12.7128	0.400091	0.543544
12.7991	12.7123	0.399048	0.532894
12.7996	12.7119	0.400554	0.518696
12.8001	12.7114	0.399985	0.504886
12.8006	12.7109	0.399102	0.491721
12.801	12.7104	0.400881	0.478424
12.8015	12.71	0.399341	0.462315
12.802	12.7095	0.398739	0.445228
12.8024	12.709	0.399693	0.428239
12.8029	12.7086	0.401331	0.414077
12.8034	12.7081	0.400867	0.398628
12.8039	12.7076	0.399674	0.382858
12.8043	12.7071	0.400582	0.363869
12.8048	12.7066	0.400273	0.34853
12.8053	12.7062	0.399294	0.335487
12.8057	12.7057	0.39919	0.324999
12.8062	12.7052	0.398519	0.313438
12.8067	12.7047	0.397524	0.300881
12.8072	12.7042	0.400748	0.294444
12.8076	12.7038	0.399436	0.290158
12.8081	12.7033	0.400247	0.285935
12.8086	12.7028	0.398518	0.281859
12.8091	12.7024	0.398566	0.280526
12.8095	12.7019	0.398899	0.281255
12.81	12.7014	0.398979	0.282258
12.8105	12.7009	0.400239	0.287715
12.8109	12.7005	0.399489	0.290332
12.8114	12.7	0.398348	0.293594
12.8119	12.6995	0.401053	0.297875
12.8124	12.6991	0.400782	0.303075
12.8128	12.6986	0.399866	0.310039
12.8133	12.6982	0.400075	0.313003
12.8138	12.6977	0.398811	0.315656
12.8142	12.6972	0.400464	0.317683
12.8147	12.6967	0.397998	0.321376
12.8152	12.6963	0.397671	0.323799
12.8157	12.6958	0.397197	0.322839
12.8161	12.6953	0.397883	0.321557
12.8166	12.6948	0.398854	0.320847
12.8171	12.6943	0.397981	0.31914
12.8176	12.6939	0.398563	0.317108
12.818	12.6934	0.39738	0.310826
12.8185	12.6929	0.398975	0.305545
12.819	12.6925	0.399781	0.299277
12.8194	12.692	0.398151	0.295223
12.8199	12.6916	0.397968	0.290571
12.8204	12.6911	0.397958	0.283257
12.8209	12.6906	0.395977	0.277081
12.8213	12.6901	0.398484	0.274951
12.8218	12.6897	0.398068	0.275469
12.8223	12.6892	0.398062	0.274231
12.8227	12.6887	0.395805	0.273147
12.8232	12.6883	0.397623	0.274581
12.8237	12.6878	0.398505	0.277584
12.8242	12.6873	0.397465	0.280545
12.8246	12.6868	0.396336	0.285762
12.8251	12.6864	0.395133	0.289647
12.8256	12.6859	0.395219	0.292483
12.8261	12.6854	0.396999	0.295707
12.8265	12.6849	0.39587	0.301277
12.827	12.6844	0.394524	0.306742
12.8275	12.684	0.393455	0.307793
12.8279	12.6835	0.393587	0.307833
12.8284	12.683	0.395502	0.312984
12.8289	12.6826	0.395415	0.316487
12.8294	12.6821	0.395578	0.321658
12.8298	12.6816	0.395466	0.323855
12.8303	12.6812	0.394869	0.325131
12.8308	12.6807	0.395842	0.328195
12.8312	12.6802	0.398213	0.33211
12.8317	12.6797	0.395495	0.336081
12.8322	12.6793	0.39622	0.336458
12.8327	12.6788	0.394518	0.33715
12.8331	12.6783	0.397211	0.33904
12.8336	12.6779	0.39624	0.341731
12.8341	12.6774	0.396337	0.34237
12.8346	12.6769	0.396554	0.341691
12.835	12.6764	0.39542	0.341412
12.8355	12.6759	0.396182	0.340529
12.836	12.6755	0.395823	0.341734
12.8364	12.675	0.396188	0.340685
12.8369	12.6745	0.395236	0.338053
12.8374	12.674	0.392796	0.337695
12.8379	12.6735	0.396956	0.337177
12.8383	12.6731	0.396291	0.336298
12.8388	12.6726	0.394584	0.335577
12.8393	12.6722	0.396605	0.333619
12.8397	12.6717	0.394304	0.330313
12.8402	12.6712	0.396893	0.329022
12.8407	12.6707	0.395053	0.328836
12.8412	12.6703	0.39535	0.32585
12.8416	12.6698	0.39406	0.323147
12.8421	12.6693	0.394032	0.320054
12.8426	12.6689	0.395281	0.317492
12.8431	12.6684	0.395175	0.315771
12.8435	12.6679	0.394387	0.314419
12.844	12.6675	0.393972	0.311422
12.8445	12.667	0.394039	0.306115
12.8449	12.6665	0.395167	0.304689
12.8454	12.666	0.395749	0.302313
12.8459	12.6656	0.39396	0.301918
12.8464	12.6651	0.393553	0.29787
12.8468	12.6646	0.394939	0.294253
12.8473	12.6641	0.394047	0.2934
12.8478	12.6637	0.394953	0.293175
12.8482	12.6632	0.393982	0.290157
12.8487	12.6627	0.394154	0.287533
12.8492	12.6623	0.393007	0.283636
12.8497	12.6618	0.395461	0.283417
12.8501	12.6613	0.394256	0.281759
12.8506	12.6609	0.392555	0.280688
12.8511	12.6604	0.391953	0.278175
12.8516	12.6599	0.39464	0.274086
12.852	12.6595	0.394015	0.273439
12.8525	12.659	0.393702	0.274157
12.853	12.6585	0.391144	0.271485
12.8534	12.6581	0.39201	0.269861
12.8539	12.6576	0.39146	0.269496
12.8544	12.6571	0.392821	0.269248
12.8549	12.6566	0.394763	0.270862
12.8553	12.6561	0.39296	0.270985
12.8558	12.6557	0.392806	0.271544
12.8563	12.6552	0.391326	0.270592
12.8567	12.6547	0.392008	0.273435
12.8572	12.6542	0.393434	0.275725
12.8577	12.6538	0.392419	0.277126
12.8582	12.6533	0.393259	0.278937
12.8586	12.6528	0.391659	0.279445
12.8591	12.6524	0.394614	0.283695
12.8596	12.6519	0.393597	0.285791
12.8601	12.6514	0.391501	0.288529
12.8605	12.6509	0.392049	0.289885
12.861	12.6505	0.39149	0.290846
12.8615	12.65	0.393977	0.293188
12.8619	12.6495	0.392152	0.297719
12.8624	12.6491	0.391452	0.300467
12.8629	12.6486	0.391117	0.300756
12.8634	12.6481	0.390434	0.301007
12.8638	12.6476	0.390346	0.304949
12.8643	12.6472	0.389965	0.307257
12.8648	12.6467	0.387492	0.307563
12.8652	12.6462	0.388055	0.308531
12.8657	12.6457	0.388089	0.30886
12.8662	12.6452	0.387509	0.309803
12.8667	12.6448	0.387696	0.312033
12.8671	12.6443	0.386928	0.312992
12.8676	12.6438	0.388152	0.313804
12.8681	12.6433	0.389244	0.313376
12.8686	12.6429	0.390549	0.31508
12.869	12.6424	0.389906	0.318182
12.8695	12.642	0.38781	0.316964
12.87	12.6415	0.390424	0.316492
12.8704	12.641	0.392145	0.317711
12.8709	12.6405	0.390107	0.317662
12.8714	12.6401	0.390862	0.318336
12.8719	12.6396	0.388628	0.318407
12.8723	12.6391	0.390404	0.31771
12.8728	12.6387	0.389256	0.315046
12.8733	12.6382	0.3897	0.314958
12.8737	12.6377	0.389547	0.316297
12.8742	12.6373	0.387557	0.315767
12.8747	12.6368	0.387532	0.313492
12.8752	12.6363	0.387591	0.310966
12.8756	12.6358	0.389557	0.310647
12.8761	12.6354	0.389154	0.313375
12.8766	12.6349	0.387516	0.310526
12.8771	12.6344	0.388242	0.309154
12.8775	12.6339	0.387091	0.308951
12.878	12.6335	0.388055	0.308661
12.8785	12.633	0.388171	0.309462
12.8789	12.6325	0.387971	0.309472
12.8794	12.6321	0.388563	0.309652
12.8799	12.6316	0.388639	0.307905
12.8804	12.6311	0.386137	0.309509
12.8808	12.6306	0.388444	0.310528
12.8813	12.6302	0.387318	0.310404
12.8818	12.6297	0.38741	0.308397
12.8822	12.6292	0.387346	0.309081
12.8827	12.6288	0.387281	0.307977
12.8832	12.6283	0.386838	0.311045
12.8837	12.6278	0.386594	0.30915
12.8841	12.6274	0.385165	0.307308
12.8846	12.6269	0.386161	0.307283
12.8851	12.6264	0.384795	0.308154
12.8856	12.6259	0.386162	0.3077
12.886	12.6254	0.384688	0.307453
12.8865	12.625	0.383616	0.3059
12.887	12.6245	0.384922	0.303618
12.8874	12.624	0.386437	0.304115
12.8879	12.6235	0.386236	0.304973
12.8884	12.6231	0.385072	0.304282
12.8889	12.6226	0.385207	0.300376
12.8893	12.6221	0.38715	0.299486
12.8898	12.6217	0.385581	0.300907
12.8903	12.6212	0.385503	0.300417
12.8907	12.6207	0.384787	0.300856
12.8912	12.6202	0.382356	0.29817
12.8917	12.6197	0.384917	0.297534
12.8922	12.6193	0.389518	0.302548
12.8926	12.6188	0.385622	0.301223
12.8931	12.6184	0.38359	0.298989
12.8936	12.6179	0.38505	0.297568
12.8941	12.6174	0.385227	0.299079
12.8945	12.6169	0.384527	0.297637
12.895	12.6165	0.384412	0.300012
12.8955	12.616	0.385138	0.299422
12.8959	12.6155	0.383228	0.296967
12.8964	12.615	0.384624	0.295967
12.8969	12.6145	0.383224	0.296601
12.8974	12.6141	0.38321	0.298152
12.8978	12.6136	0.381763	0.294608
12.8983	12.6131	0.382822	0.294569
12.8988	12.6127	0.384593	0.294205
