# 1304     AichiSR QXAFS
# Start     : 8.9544
# End       : 9.0544
# Dir       : Backward
# Points    : 300
# ScanTime  : 1.01549
# Date      : 13.04.23 22:26
# Ring Cur. : 25.4[mA]
12.7557	12.6118	0.296237	0.225758
12.7562	12.6122	0.293453	0.223778
12.7566	12.6127	0.295949	0.226756
12.7571	12.6132	0.297849	0.22949
12.7576	12.6136	0.29506	0.230666
12.7581	12.6141	0.296837	0.229342
12.7585	12.6146	0.298473	0.229762
12.759	12.615	0.298428	0.23104
12.7595	12.6155	0.29988	0.235034
12.7599	12.616	0.301036	0.235659
12.7604	12.6165	0.299421	0.233843
12.7609	12.6169	0.299106	0.231695
12.7614	12.6174	0.299655	0.232926
12.7618	12.6179	0.301572	0.235564
12.7623	12.6184	0.296396	0.232566
12.7628	12.6188	0.298015	0.232548
12.7632	12.6193	0.298958	0.23161
12.7637	12.6198	0.299777	0.233205
12.7642	12.6202	0.301134	0.234973
12.7647	12.6207	0.300312	0.235492
12.7651	12.6212	0.301587	0.23488
12.7656	12.6217	0.300235	0.233174
12.7661	12.6221	0.302847	0.23662
12.7666	12.6226	0.303158	0.23802
12.767	12.6231	0.302293	0.238381
12.7675	12.6235	0.299936	0.236752
12.768	12.624	0.303695	0.238136
12.7684	12.6245	0.301805	0.23863
12.7689	12.625	0.300517	0.238309
12.7694	12.6255	0.30182	0.241722
12.7699	12.6259	0.299426	0.238483
12.7703	12.6264	0.299418	0.238854
12.7708	12.6269	0.302405	0.241559
12.7713	12.6274	0.304573	0.244299
12.7717	12.6279	0.30192	0.243307
12.7722	12.6283	0.301165	0.240897
12.7727	12.6288	0.303812	0.243265
12.7732	12.6293	0.304707	0.243643
12.7736	12.6297	0.305461	0.245833
12.7741	12.6302	0.305127	0.245024
12.7746	12.6307	0.304582	0.243741
12.7751	12.6311	0.304705	0.242058
12.7755	12.6316	0.304151	0.24405
12.776	12.6321	0.304249	0.246057
12.7765	12.6325	0.305222	0.244338
12.7769	12.633	0.303585	0.243172
12.7774	12.6335	0.306391	0.242713
12.7779	12.6339	0.305429	0.243056
12.7784	12.6344	0.305359	0.244786
12.7788	12.6349	0.305256	0.246633
12.7793	12.6354	0.305523	0.244912
12.7798	12.6358	0.305948	0.243658
12.7802	12.6363	0.307309	0.246014
12.7807	12.6368	0.306998	0.248427
12.7812	12.6373	0.306364	0.248349
12.7817	12.6377	0.307633	0.248884
12.7821	12.6382	0.306618	0.246872
12.7826	12.6387	0.305458	0.248276
12.7831	12.6391	0.307718	0.25038
12.7836	12.6396	0.307038	0.251046
12.784	12.6401	0.307394	0.249254
12.7845	12.6405	0.306396	0.248819
12.785	12.641	0.308391	0.25256
12.7854	12.6415	0.311427	0.253216
12.7859	12.642	0.306395	0.252554
12.7864	12.6424	0.307324	0.251185
12.7869	12.6429	0.310825	0.250885
12.7873	12.6433	0.308555	0.251207
12.7878	12.6438	0.308168	0.252056
12.7883	12.6443	0.307981	0.250197
12.7887	12.6448	0.308375	0.248528
12.7892	12.6452	0.305881	0.245231
12.7897	12.6457	0.306852	0.247139
12.7902	12.6462	0.307346	0.248568
12.7906	12.6467	0.305887	0.246818
12.7911	12.6472	0.30588	0.242595
12.7916	12.6476	0.308141	0.244033
12.7921	12.6481	0.310814	0.24258
12.7925	12.6486	0.309842	0.24235
12.793	12.6491	0.31034	0.241471
12.7935	12.6495	0.310101	0.238153
12.7939	12.65	0.311032	0.234802
12.7944	12.6505	0.312563	0.236176
12.7949	12.651	0.314864	0.236385
12.7954	12.6514	0.311572	0.233395
12.7958	12.6519	0.310407	0.230014
12.7963	12.6524	0.312322	0.228313
12.7968	12.6528	0.31255	0.22623
12.7972	12.6533	0.313243	0.226883
12.7977	12.6538	0.31222	0.224786
12.7982	12.6542	0.311679	0.221386
12.7987	12.6547	0.311337	0.220349
12.7991	12.6552	0.313182	0.217704
12.7996	12.6557	0.312564	0.220241
12.8001	12.6562	0.314992	0.218174
12.8006	12.6566	0.312981	0.215711
12.801	12.6571	0.314548	0.215784
12.8015	12.6576	0.313867	0.21643
12.802	12.6581	0.313832	0.217713
12.8024	12.6585	0.312741	0.217948
12.8029	12.659	0.314143	0.215454
12.8034	12.6595	0.314636	0.217321
12.8039	12.6599	0.315056	0.219799
12.8043	12.6604	0.315151	0.222245
12.8048	12.6609	0.314571	0.222665
12.8053	12.6614	0.314786	0.222018
12.8057	12.6618	0.318186	0.22542
12.8062	12.6623	0.314785	0.226044
12.8067	12.6627	0.315339	0.228838
12.8072	12.6632	0.314919	0.23019
12.8076	12.6637	0.314796	0.229144
12.8081	12.6641	0.316937	0.232216
12.8086	12.6646	0.315803	0.234327
12.8091	12.6651	0.316992	0.238051
12.8095	12.6656	0.314407	0.238558
12.81	12.6661	0.314919	0.237925
12.8105	12.6665	0.317193	0.242146
12.8109	12.667	0.317267	0.243274
12.8114	12.6675	0.317048	0.246423
12.8119	12.668	0.316831	0.249932
12.8124	12.6684	0.317389	0.248779
12.8128	12.6689	0.315488	0.249425
12.8133	12.6693	0.316351	0.253252
12.8138	12.6698	0.318049	0.258029
12.8142	12.6703	0.316954	0.258984
12.8147	12.6708	0.317256	0.258454
12.8152	12.6712	0.318317	0.263501
12.8157	12.6717	0.316047	0.263133
12.8161	12.6722	0.316216	0.266705
12.8166	12.6726	0.318095	0.268545
12.8171	12.6731	0.317793	0.266152
12.8176	12.6736	0.316612	0.266799
12.818	12.674	0.315914	0.27003
12.8185	12.6745	0.317075	0.272569
12.819	12.675	0.315073	0.271943
12.8194	12.6755	0.315982	0.271629
12.8199	12.676	0.319329	0.273979
12.8204	12.6764	0.317106	0.272852
12.8209	12.6769	0.317187	0.274585
12.8213	12.6774	0.317898	0.275117
12.8218	12.6779	0.317554	0.274079
12.8223	12.6784	0.317406	0.272197
12.8227	12.6788	0.318002	0.273445
12.8232	12.6793	0.319664	0.275923
12.8237	12.6797	0.317753	0.272599
12.8242	12.6802	0.317334	0.268989
12.8246	12.6807	0.319372	0.268172
12.8251	12.6812	0.31762	0.264525
12.8256	12.6817	0.316263	0.264393
12.8261	12.6821	0.318588	0.261811
12.8265	12.6826	0.316401	0.257395
12.827	12.683	0.318017	0.255275
12.8275	12.6835	0.316503	0.253591
12.8279	12.684	0.317557	0.252429
12.8284	12.6845	0.317145	0.248435
12.8289	12.6849	0.316723	0.246228
12.8294	12.6854	0.318985	0.243736
12.8298	12.6859	0.318281	0.240816
12.8303	12.6864	0.317698	0.238294
12.8308	12.6869	0.318569	0.23533
12.8312	12.6873	0.318784	0.230625
12.8317	12.6878	0.319558	0.227426
12.8322	12.6883	0.318943	0.225293
12.8327	12.6888	0.319261	0.223408
12.8331	12.6892	0.319197	0.221335
12.8336	12.6897	0.320002	0.218684
12.8341	12.6901	0.32006	0.220223
12.8346	12.6906	0.318503	0.220635
12.835	12.6911	0.318355	0.223295
12.8355	12.6916	0.32031	0.227478
12.836	12.692	0.319153	0.227873
12.8364	12.6925	0.319762	0.233128
12.8369	12.693	0.319491	0.240077
12.8374	12.6934	0.319171	0.244375
12.8379	12.6939	0.318306	0.246679
12.8383	12.6944	0.319718	0.251313
12.8388	12.6948	0.321438	0.255239
12.8393	12.6953	0.316496	0.256714
12.8397	12.6958	0.317898	0.259202
12.8402	12.6963	0.319672	0.258939
12.8407	12.6967	0.319432	0.25835
12.8412	12.6972	0.318941	0.256232
12.8416	12.6977	0.318588	0.257459
12.8421	12.6982	0.318688	0.255784
12.8426	12.6986	0.31622	0.25166
12.8431	12.6991	0.318384	0.247822
12.8435	12.6995	0.319764	0.244808
12.844	12.7	0.317753	0.241581
12.8445	12.7005	0.318037	0.238379
12.8449	12.701	0.31953	0.234721
12.8454	12.7015	0.31699	0.228997
12.8459	12.7019	0.319246	0.226231
12.8464	12.7024	0.320215	0.228098
12.8468	12.7028	0.319051	0.226422
12.8473	12.7033	0.318125	0.22447
12.8478	12.7038	0.319741	0.225876
12.8482	12.7043	0.320455	0.229512
12.8487	12.7047	0.320331	0.233981
12.8492	12.7052	0.318773	0.239377
12.8497	12.7057	0.31977	0.246366
12.8501	12.7062	0.320321	0.253402
12.8506	12.7067	0.320312	0.263513
12.8511	12.7072	0.320527	0.274703
12.8516	12.7076	0.318612	0.286524
12.852	12.7081	0.318965	0.297077
12.8525	12.7086	0.31965	0.310144
12.853	12.709	0.321391	0.325656
12.8534	12.7095	0.321445	0.338372
12.8539	12.71	0.319321	0.352781
12.8544	12.7104	0.320469	0.363148
12.8549	12.7109	0.32169	0.376124
12.8553	12.7114	0.321369	0.391607
12.8558	12.7119	0.322091	0.404025
12.8563	12.7123	0.318715	0.412262
12.8567	12.7128	0.319854	0.421911
12.8572	12.7133	0.321688	0.431702
12.8577	12.7137	0.322063	0.439423
12.8582	12.7142	0.321008	0.447812
12.8586	12.7147	0.319897	0.457247
12.8591	12.7152	0.319237	0.462105
12.8596	12.7157	0.321383	0.472221
12.8601	12.7161	0.321022	0.480436
12.8605	12.7166	0.320691	0.491017
12.861	12.7171	0.320293	0.500118
12.8615	12.7176	0.321356	0.50476
12.8619	12.718	0.321021	0.508527
12.8624	12.7185	0.321495	0.509302
12.8629	12.719	0.320558	0.508031
12.8634	12.7194	0.319606	0.505883
12.8638	12.7199	0.318971	0.498816
12.8643	12.7203	0.319916	0.493512
12.8648	12.7208	0.319627	0.493634
12.8652	12.7213	0.319695	0.497532
12.8657	12.7218	0.317998	0.503396
12.8662	12.7222	0.315556	0.51141
12.8667	12.7227	0.319604	0.540033
12.8671	12.7232	0.319453	0.573625
12.8676	12.7236	0.317163	0.611828
12.8681	12.7241	0.315737	0.662398
12.8686	12.7246	0.316003	0.714042
12.869	12.725	0.315126	0.75715
12.8695	12.7255	0.314146	0.797424
12.87	12.726	0.316027	0.835823
12.8704	12.7265	0.317705	0.863064
12.8709	12.7269	0.316267	0.877004
12.8714	12.7274	0.317823	0.890371
12.8719	12.7279	0.318354	0.909928
12.8723	12.7284	0.318444	0.917041
12.8728	12.7288	0.316751	0.924536
12.8733	12.7293	0.318781	0.927052
12.8737	12.7298	0.319148	0.933382
12.8742	12.7302	0.317931	0.933924
12.8747	12.7307	0.320427	0.942705
12.8752	12.7312	0.319975	0.949746
12.8756	12.7317	0.318039	0.943458
12.8761	12.7321	0.319158	0.946548
12.8766	12.7326	0.318433	0.951409
12.8771	12.7331	0.318116	0.950412
12.8775	12.7336	0.317356	0.956014
12.878	12.734	0.320723	0.957276
12.8785	12.7345	0.319922	0.956166
12.8789	12.735	0.318092	0.953391
12.8794	12.7355	0.319631	0.961891
12.8799	12.7359	0.320071	0.965982
12.8804	12.7364	0.319248	0.961582
12.8808	12.7369	0.321332	0.960886
12.8813	12.7374	0.321029	0.966359
12.8818	12.7379	0.320133	0.966681
12.8822	12.7383	0.319257	0.968095
12.8827	12.7388	0.320601	0.971367
12.8832	12.7393	0.321421	0.968682
12.8837	12.7397	0.31968	0.964388
12.8841	12.7402	0.318963	0.968651
12.8846	12.7407	0.320506	0.97059
12.8851	12.7412	0.318033	0.968101
12.8856	12.7416	0.3206	0.968543
12.886	12.7421	0.320073	0.970285
12.8865	12.7426	0.319789	0.96981
12.887	12.743	0.319529	0.974324
12.8874	12.7435	0.321792	0.977015
12.8879	12.744	0.321	0.975327
12.8884	12.7444	0.321146	0.974913
12.8889	12.7449	0.321281	0.9758
12.8893	12.7454	0.321866	0.979526
12.8898	12.7459	0.321208	0.977173
12.8903	12.7464	0.323164	0.981931
12.8907	12.7468	0.323997	0.987273
12.8912	12.7473	0.32134	0.976802
12.8917	12.7478	0.321496	0.982497
12.8922	12.7483	0.322188	0.979076
12.8926	12.7487	0.3234	0.982064
12.8931	12.7492	0.320863	0.978185
12.8936	12.7496	0.321354	0.981071
12.8941	12.7501	0.322362	0.98378
12.8945	12.7506	0.320696	0.976881
12.895	12.7511	0.322699	0.981303
12.8955	12.7515	0.322676	0.983495
12.8959	12.752	0.320711	0.981547
12.8964	12.7525	0.321058	0.982014
12.8969	12.7529	0.324095	0.984552
12.8974	12.7534	0.324583	0.985816
12.8978	12.7538	0.32093	0.980641
12.8983	12.7543	0.321407	0.981237
12.8988	12.7548	0.322301	0.985838
