# 1304     AichiSR QXAFS
# Start     : 8.9544
# End       : 9.0544
# Dir       : Forward
# Points    : 300
# ScanTime  : 1.01549
# Date      : 13.04.23 22:24
# Ring Cur. : 25.5[mA]
12.7557	12.7557	0.398857	1.21616
12.7562	12.7552	0.400813	1.21633
12.7566	12.7548	0.398899	1.2191
12.7571	12.7543	0.400785	1.22162
12.7576	12.7538	0.400083	1.22046
12.7581	12.7533	0.400011	1.21661
12.7585	12.7529	0.401068	1.21593
12.759	12.7524	0.400346	1.2184
12.7595	12.752	0.398832	1.22022
12.7599	12.7515	0.39847	1.21756
12.7604	12.751	0.39786	1.2143
12.7609	12.7505	0.400498	1.21651
12.7614	12.7501	0.398283	1.21561
12.7618	12.7496	0.399334	1.21756
12.7623	12.7491	0.398415	1.21606
12.7628	12.7487	0.398513	1.21306
12.7632	12.7482	0.401251	1.21552
12.7637	12.7478	0.401708	1.2142
12.7642	12.7473	0.397552	1.21208
12.7647	12.7468	0.397207	1.21245
12.7651	12.7463	0.397264	1.20704
12.7656	12.7458	0.398696	1.20928
12.7661	12.7454	0.397736	1.21235
12.7666	12.7449	0.39753	1.21067
12.767	12.7444	0.397336	1.20854
12.7675	12.7439	0.395512	1.20666
12.768	12.7435	0.398761	1.20799
12.7684	12.743	0.39857	1.21012
12.7689	12.7425	0.396574	1.20643
12.7694	12.7421	0.396663	1.20592
12.7699	12.7416	0.396047	1.20154
12.7703	12.7411	0.397894	1.20155
12.7708	12.7407	0.396533	1.20512
12.7713	12.7402	0.396848	1.20253
12.7717	12.7397	0.396432	1.19671
12.7722	12.7392	0.395218	1.19834
12.7727	12.7388	0.398333	1.19956
12.7732	12.7383	0.397019	1.19929
12.7736	12.7378	0.39644	1.20022
12.7741	12.7374	0.395299	1.19684
12.7746	12.7369	0.397213	1.19198
12.7751	12.7364	0.396997	1.19113
12.7755	12.7359	0.39606	1.19595
12.776	12.7354	0.39503	1.19368
12.7765	12.735	0.395199	1.19059
12.7769	12.7345	0.395192	1.18308
12.7774	12.734	0.396303	1.18623
12.7779	12.7335	0.395425	1.18463
12.7784	12.7331	0.395199	1.18219
12.7788	12.7326	0.393906	1.1797
12.7793	12.7321	0.393873	1.1757
12.7798	12.7317	0.395385	1.17206
12.7802	12.7312	0.395186	1.17096
12.7807	12.7307	0.393403	1.17242
12.7812	12.7302	0.393772	1.16435
12.7817	12.7298	0.392483	1.15681
12.7821	12.7293	0.396914	1.16325
12.7826	12.7288	0.398461	1.16353
12.7831	12.7284	0.392705	1.14718
12.7836	12.7279	0.393809	1.13795
12.784	12.7274	0.39125	1.12696
12.7845	12.7269	0.39411	1.11294
12.785	12.7265	0.392206	1.0991
12.7854	12.726	0.390193	1.07787
12.7859	12.7255	0.388912	1.04511
12.7864	12.725	0.387958	1.00535
12.7869	12.7246	0.389691	0.96283
12.7873	12.7241	0.387837	0.912417
12.7878	12.7236	0.388332	0.851053
12.7883	12.7231	0.390099	0.791977
12.7887	12.7227	0.391145	0.734195
12.7892	12.7222	0.392395	0.687288
12.7897	12.7218	0.394911	0.653431
12.7902	12.7213	0.393988	0.633129
12.7906	12.7208	0.394453	0.615224
12.7911	12.7203	0.392687	0.608244
12.7916	12.7199	0.393633	0.609093
12.7921	12.7194	0.393775	0.613315
12.7925	12.7189	0.393345	0.617769
12.793	12.7185	0.394415	0.620806
12.7935	12.718	0.393465	0.621872
12.7939	12.7175	0.394758	0.624732
12.7944	12.7171	0.394083	0.623652
12.7949	12.7166	0.39402	0.617964
12.7954	12.7161	0.393597	0.607961
12.7958	12.7156	0.393331	0.59554
12.7963	12.7151	0.394322	0.585804
12.7968	12.7147	0.395696	0.576352
12.7972	12.7142	0.39351	0.565959
12.7977	12.7137	0.394181	0.555661
12.7982	12.7132	0.394588	0.546399
12.7987	12.7128	0.394439	0.535864
12.7991	12.7123	0.395057	0.52536
12.7996	12.7119	0.393904	0.515376
12.8001	12.7114	0.394613	0.499747
12.8006	12.7109	0.394719	0.48587
12.801	12.7104	0.396618	0.473211
12.8015	12.7099	0.396157	0.459161
12.802	12.7095	0.394399	0.442318
12.8024	12.709	0.394908	0.426391
12.8029	12.7086	0.396128	0.408227
12.8034	12.7081	0.394582	0.391401
12.8039	12.7076	0.397731	0.377321
12.8043	12.7071	0.395377	0.363209
12.8048	12.7066	0.396216	0.346134
12.8053	12.7062	0.395992	0.333531
12.8057	12.7057	0.396182	0.320128
12.8062	12.7052	0.395297	0.310888
12.8067	12.7047	0.395916	0.300235
12.8072	12.7042	0.39563	0.292531
12.8076	12.7038	0.396419	0.286794
12.8081	12.7033	0.396243	0.280548
12.8086	12.7028	0.397027	0.280076
12.8091	12.7024	0.395438	0.2784
12.8095	12.7019	0.395393	0.279491
12.81	12.7014	0.39474	0.280817
12.8105	12.701	0.397185	0.282722
12.8109	12.7005	0.395829	0.290323
12.8114	12.7	0.396062	0.29257
12.8119	12.6995	0.396553	0.296707
12.8124	12.6991	0.396701	0.300078
12.8128	12.6986	0.396115	0.306059
12.8133	12.6982	0.397759	0.310031
12.8138	12.6977	0.395161	0.314757
12.8142	12.6972	0.396216	0.316275
12.8147	12.6967	0.397106	0.317407
12.8152	12.6963	0.396861	0.321962
12.8157	12.6958	0.397072	0.323228
12.8161	12.6953	0.396405	0.321001
12.8166	12.6948	0.395558	0.319009
12.8171	12.6943	0.39715	0.317781
12.8176	12.6939	0.396975	0.314365
12.818	12.6934	0.396176	0.310513
12.8185	12.6929	0.396215	0.306212
12.819	12.6925	0.394649	0.299652
12.8194	12.692	0.396462	0.293011
12.8199	12.6916	0.39694	0.288079
12.8204	12.6911	0.396962	0.284305
12.8209	12.6906	0.39444	0.27859
12.8213	12.6901	0.395734	0.274778
12.8218	12.6897	0.397161	0.272188
12.8223	12.6892	0.3974	0.273101
12.8227	12.6887	0.39711	0.274187
12.8232	12.6883	0.395242	0.275052
12.8237	12.6878	0.394771	0.275808
12.8242	12.6873	0.396852	0.278919
12.8246	12.6868	0.397022	0.284649
12.8251	12.6864	0.395006	0.290634
12.8256	12.6859	0.393521	0.292373
12.8261	12.6854	0.39447	0.294762
12.8265	12.6849	0.395297	0.299297
12.827	12.6844	0.394195	0.303207
12.8275	12.684	0.393361	0.30854
12.8279	12.6835	0.39322	0.310376
12.8284	12.683	0.394228	0.313373
12.8289	12.6826	0.396308	0.315457
12.8294	12.6821	0.396638	0.320132
12.8298	12.6816	0.394299	0.324742
12.8303	12.6812	0.395753	0.325531
12.8308	12.6807	0.396898	0.3271
12.8312	12.6802	0.39811	0.331466
12.8317	12.6797	0.397254	0.334644
12.8322	12.6793	0.396088	0.338179
12.8327	12.6788	0.396636	0.340534
12.8331	12.6783	0.39643	0.340775
12.8336	12.6779	0.398379	0.340723
12.8341	12.6774	0.396418	0.342532
12.8346	12.6769	0.396173	0.343549
12.835	12.6764	0.396674	0.341703
12.8355	12.6759	0.396362	0.340272
12.836	12.6755	0.399707	0.340119
12.8364	12.675	0.396697	0.341982
12.8369	12.6745	0.396498	0.340883
12.8374	12.674	0.396254	0.339586
12.8379	12.6736	0.395306	0.33577
12.8383	12.6731	0.397485	0.334049
12.8388	12.6726	0.398209	0.33426
12.8393	12.6722	0.395801	0.335175
12.8397	12.6717	0.395623	0.331879
12.8402	12.6712	0.395374	0.328063
12.8407	12.6707	0.397331	0.32775
12.8412	12.6703	0.395806	0.326313
12.8416	12.6698	0.396658	0.325364
12.8421	12.6693	0.396708	0.321715
12.8426	12.6689	0.396322	0.317968
12.8431	12.6684	0.397607	0.315373
12.8435	12.668	0.397417	0.315367
12.844	12.6675	0.396059	0.311933
12.8445	12.667	0.396131	0.30902
12.8449	12.6665	0.394957	0.304944
12.8454	12.6661	0.397353	0.303338
12.8459	12.6656	0.396314	0.302591
12.8464	12.6651	0.396536	0.299899
12.8468	12.6646	0.395806	0.297719
12.8473	12.6641	0.39383	0.293045
12.8478	12.6637	0.395798	0.291479
12.8482	12.6632	0.395982	0.290975
12.8487	12.6627	0.394358	0.288522
12.8492	12.6623	0.396244	0.286339
12.8497	12.6618	0.39524	0.282224
12.8501	12.6613	0.396096	0.282022
12.8506	12.6609	0.395115	0.280008
12.8511	12.6604	0.395178	0.279683
12.8516	12.6599	0.393098	0.276867
12.852	12.6595	0.394784	0.273861
12.8525	12.659	0.396302	0.272835
12.853	12.6585	0.394354	0.271573
12.8534	12.6581	0.393188	0.273585
12.8539	12.6576	0.393195	0.271503
12.8544	12.6571	0.393129	0.269518
12.8549	12.6566	0.394813	0.270786
12.8553	12.6562	0.393875	0.271331
12.8558	12.6557	0.391705	0.273116
12.8563	12.6552	0.392117	0.273209
12.8567	12.6547	0.394561	0.273739
12.8572	12.6542	0.393938	0.274578
12.8577	12.6538	0.395797	0.279686
12.8582	12.6533	0.393236	0.281006
12.8586	12.6528	0.392789	0.281315
12.8591	12.6524	0.393488	0.283613
12.8596	12.6519	0.395806	0.28564
12.8601	12.6514	0.39459	0.289275
12.8605	12.6509	0.393488	0.292536
12.861	12.6505	0.393569	0.294594
12.8615	12.65	0.393718	0.29463
12.8619	12.6495	0.393392	0.297743
12.8624	12.6491	0.393642	0.300727
12.8629	12.6486	0.394395	0.304199
12.8634	12.6481	0.392369	0.30454
12.8638	12.6476	0.392829	0.30476
12.8643	12.6472	0.393208	0.307225
12.8648	12.6467	0.391294	0.30881
12.8652	12.6462	0.389263	0.309917
12.8657	12.6457	0.390945	0.309757
12.8662	12.6452	0.389367	0.310913
12.8667	12.6448	0.388741	0.311864
12.8671	12.6443	0.39039	0.315161
12.8676	12.6438	0.388281	0.315143
12.8681	12.6433	0.389918	0.31644
12.8686	12.6429	0.391464	0.316284
12.869	12.6424	0.391905	0.317631
12.8695	12.642	0.393576	0.320415
12.87	12.6415	0.391157	0.319656
12.8704	12.641	0.392099	0.319418
12.8709	12.6405	0.392344	0.31845
12.8714	12.6401	0.392469	0.319825
12.8719	12.6396	0.392934	0.321178
12.8723	12.6391	0.390547	0.319935
12.8728	12.6387	0.391366	0.318208
12.8733	12.6382	0.39208	0.315842
12.8737	12.6377	0.393193	0.316154
12.8742	12.6373	0.390693	0.316905
12.8747	12.6368	0.389626	0.315356
12.8752	12.6363	0.391387	0.314706
12.8756	12.6358	0.391927	0.312915
12.8761	12.6354	0.390113	0.312927
12.8766	12.6349	0.391475	0.313395
12.8771	12.6344	0.390626	0.312345
12.8775	12.6339	0.390423	0.310964
12.878	12.6335	0.390043	0.309387
12.8785	12.633	0.391346	0.309352
12.8789	12.6325	0.391038	0.312708
12.8794	12.6321	0.391003	0.311684
12.8799	12.6316	0.388968	0.31195
12.8804	12.6311	0.391115	0.309699
12.8808	12.6306	0.390231	0.310746
12.8813	12.6302	0.3913	0.312907
12.8818	12.6297	0.387572	0.3114
12.8822	12.6292	0.388212	0.310787
12.8827	12.6288	0.390175	0.309532
12.8832	12.6283	0.389796	0.311852
12.8837	12.6278	0.389758	0.312252
12.8841	12.6274	0.388728	0.312668
12.8846	12.6269	0.39054	0.31156
12.8851	12.6264	0.390427	0.308302
12.8856	12.6259	0.389317	0.309821
12.886	12.6254	0.391808	0.311193
12.8865	12.625	0.388741	0.309242
12.887	12.6245	0.387935	0.307335
12.8874	12.624	0.388446	0.306169
12.8879	12.6235	0.388955	0.306983
12.8884	12.6231	0.389823	0.307728
12.8889	12.6226	0.389286	0.305468
12.8893	12.6221	0.388843	0.303324
12.8898	12.6217	0.388274	0.301827
12.8903	12.6212	0.389957	0.303152
12.8907	12.6207	0.389667	0.303673
12.8912	12.6202	0.386093	0.303587
12.8917	12.6197	0.388156	0.301659
12.8922	12.6193	0.390172	0.300992
12.8926	12.6188	0.388771	0.301819
12.8931	12.6184	0.389699	0.301065
12.8936	12.6179	0.386324	0.301422
12.8941	12.6174	0.387024	0.30128
12.8945	12.6169	0.388497	0.299985
12.895	12.6164	0.386679	0.300704
12.8955	12.616	0.387427	0.302885
12.8959	12.6155	0.386714	0.299977
12.8964	12.615	0.387725	0.299239
12.8969	12.6145	0.387054	0.298853
12.8974	12.6141	0.386536	0.298936
12.8978	12.6136	0.38666	0.300142
12.8983	12.6131	0.387185	0.297931
12.8988	12.6127	0.385965	0.295707
