# 1304     AichiSR QXAFS
# Start     : 8.9544
# End       : 9.0544
# Dir       : Forward
# Points    : 300
# ScanTime  : 1.01549
# Date      : 13.04.23 22:20
# Ring Cur. : 25.5[mA]
12.7557	12.7557	0.403379	1.23053
12.7562	12.7552	0.402496	1.2295
12.7566	12.7548	0.401	1.22975
12.7571	12.7543	0.402044	1.22647
12.7576	12.7538	0.404489	1.22795
12.7581	12.7533	0.402729	1.22512
12.7585	12.7529	0.404859	1.22793
12.759	12.7524	0.402363	1.22972
12.7595	12.752	0.401519	1.2209
12.7599	12.7515	0.40306	1.22173
12.7604	12.751	0.403586	1.22771
12.7609	12.7505	0.402935	1.2247
12.7614	12.7501	0.402045	1.22668
12.7618	12.7496	0.400733	1.2231
12.7623	12.7491	0.401092	1.22069
12.7628	12.7487	0.403418	1.22358
12.7632	12.7482	0.40189	1.22549
12.7637	12.7477	0.401047	1.22457
12.7642	12.7473	0.4017	1.21913
12.7647	12.7468	0.402666	1.22031
12.7651	12.7463	0.401645	1.22141
12.7656	12.7458	0.40153	1.22283
12.7661	12.7454	0.401606	1.22201
12.7666	12.7449	0.401	1.21689
12.767	12.7444	0.400785	1.21905
12.7675	12.7439	0.401035	1.21856
12.768	12.7435	0.401521	1.22027
12.7684	12.743	0.400536	1.22036
12.7689	12.7425	0.401004	1.21487
12.7694	12.7421	0.402848	1.21638
12.7699	12.7416	0.400585	1.21573
12.7703	12.7411	0.402195	1.21581
12.7708	12.7406	0.400092	1.21522
12.7713	12.7402	0.400375	1.21311
12.7717	12.7397	0.401428	1.21245
12.7722	12.7392	0.401365	1.21131
12.7727	12.7388	0.402003	1.21599
12.7732	12.7383	0.399791	1.21209
12.7736	12.7378	0.399463	1.20888
12.7741	12.7374	0.399724	1.20602
12.7746	12.7369	0.400494	1.20754
12.7751	12.7364	0.399765	1.20986
12.7755	12.7359	0.39835	1.20525
12.776	12.7354	0.399194	1.19939
12.7765	12.7349	0.400065	1.20073
12.7769	12.7345	0.400108	1.19842
12.7774	12.734	0.399711	1.19977
12.7779	12.7335	0.398837	1.19751
12.7784	12.733	0.397522	1.19077
12.7788	12.7326	0.399727	1.19166
12.7793	12.7321	0.400517	1.19242
12.7798	12.7316	0.398397	1.18761
12.7802	12.7312	0.399586	1.18179
12.7807	12.7307	0.399907	1.18066
12.7812	12.7302	0.400467	1.17498
12.7817	12.7297	0.397746	1.17348
12.7821	12.7293	0.398627	1.17145
12.7826	12.7288	0.398628	1.16223
12.7831	12.7284	0.397558	1.1505
12.7836	12.7279	0.399952	1.14496
12.784	12.7274	0.397784	1.13694
12.7845	12.7269	0.396772	1.12644
12.785	12.7265	0.395011	1.10547
12.7854	12.726	0.396091	1.08182
12.7859	12.7255	0.393375	1.05043
12.7864	12.725	0.394068	1.01588
12.7869	12.7245	0.39176	0.971422
12.7873	12.7241	0.3936	0.912233
12.7878	12.7236	0.392076	0.843833
12.7883	12.7231	0.396571	0.785237
12.7887	12.7227	0.396472	0.735966
12.7892	12.7222	0.396268	0.691138
12.7897	12.7218	0.397189	0.656934
12.7902	12.7213	0.397167	0.632661
12.7906	12.7208	0.396679	0.617719
12.7911	12.7203	0.397297	0.616178
12.7916	12.7199	0.395691	0.617225
12.7921	12.7194	0.396057	0.618514
12.7925	12.7189	0.397111	0.619505
12.793	12.7185	0.397788	0.623775
12.7935	12.718	0.395894	0.629378
12.7939	12.7175	0.395589	0.632829
12.7944	12.7171	0.396538	0.625298
12.7949	12.7166	0.396027	0.618489
12.7954	12.7161	0.397233	0.609117
12.7958	12.7156	0.395696	0.598324
12.7963	12.7151	0.396256	0.589113
12.7968	12.7147	0.395693	0.576876
12.7972	12.7142	0.393716	0.56406
12.7977	12.7137	0.396716	0.554141
12.7982	12.7132	0.397252	0.54775
12.7987	12.7128	0.394148	0.538567
12.7991	12.7123	0.394807	0.523681
12.7996	12.7118	0.3969	0.511864
12.8001	12.7114	0.396036	0.498373
12.8006	12.7109	0.395786	0.484925
12.801	12.7104	0.395884	0.472406
12.8015	12.7099	0.395426	0.455576
12.802	12.7095	0.394803	0.434895
12.8024	12.709	0.395646	0.421035
12.8029	12.7085	0.395724	0.405966
12.8034	12.7081	0.394919	0.389541
12.8039	12.7076	0.395255	0.372488
12.8043	12.7071	0.396583	0.357046
12.8048	12.7066	0.396052	0.342022
12.8053	12.7062	0.393685	0.330273
12.8057	12.7057	0.395206	0.320351
12.8062	12.7052	0.396017	0.307909
12.8067	12.7047	0.393301	0.29605
12.8072	12.7042	0.395685	0.290101
12.8076	12.7038	0.393865	0.284395
12.8081	12.7033	0.394568	0.280575
12.8086	12.7028	0.394091	0.278637
12.8091	12.7024	0.393049	0.276864
12.8095	12.7019	0.392605	0.276234
12.81	12.7014	0.393641	0.2805
12.8105	12.7009	0.393513	0.284781
12.8109	12.7005	0.394338	0.287373
12.8114	12.7	0.393089	0.290637
12.8119	12.6995	0.394885	0.295093
12.8124	12.6991	0.393278	0.301366
12.8128	12.6986	0.392051	0.304307
12.8133	12.6982	0.393673	0.309056
12.8138	12.6977	0.392385	0.311041
12.8142	12.6972	0.392897	0.312535
12.8147	12.6967	0.393356	0.316689
12.8152	12.6962	0.392305	0.31823
12.8157	12.6958	0.392057	0.31722
12.8161	12.6953	0.392625	0.316281
12.8166	12.6948	0.392868	0.314763
12.8171	12.6943	0.392913	0.315562
12.8176	12.6939	0.390902	0.310261
12.818	12.6934	0.391227	0.30538
12.8185	12.6929	0.39234	0.299683
12.819	12.6925	0.39144	0.294188
12.8194	12.692	0.391004	0.289611
12.8199	12.6915	0.390346	0.285628
12.8204	12.6911	0.392102	0.278434
12.8209	12.6906	0.391796	0.27195
12.8213	12.6901	0.391402	0.270774
12.8218	12.6897	0.391246	0.269126
12.8223	12.6892	0.39029	0.269399
12.8227	12.6887	0.388902	0.269137
12.8232	12.6883	0.389254	0.270261
12.8237	12.6878	0.390045	0.273077
12.8242	12.6873	0.391211	0.278073
12.8246	12.6868	0.389368	0.281611
12.8251	12.6864	0.389542	0.284744
12.8256	12.6859	0.387157	0.286923
12.8261	12.6854	0.38944	0.292186
12.8265	12.6849	0.388006	0.296296
12.827	12.6844	0.386655	0.299074
12.8275	12.684	0.386605	0.30247
12.8279	12.6835	0.386763	0.303845
12.8284	12.683	0.386476	0.308821
12.8289	12.6826	0.388519	0.312632
12.8294	12.6821	0.38809	0.316326
12.8298	12.6816	0.387644	0.317771
12.8303	12.6811	0.387019	0.31793
12.8308	12.6807	0.389243	0.322657
12.8312	12.6802	0.389461	0.326973
12.8317	12.6797	0.386718	0.32913
12.8322	12.6793	0.38948	0.330019
12.8327	12.6788	0.389574	0.332845
12.8331	12.6783	0.392619	0.337778
12.8336	12.6779	0.391034	0.337657
12.8341	12.6774	0.387737	0.337619
12.8346	12.6769	0.389239	0.33605
12.835	12.6764	0.388429	0.3345
12.8355	12.6759	0.389531	0.334019
12.836	12.6755	0.38992	0.334582
12.8364	12.675	0.386958	0.332904
12.8369	12.6745	0.387839	0.331898
12.8374	12.674	0.388642	0.330501
12.8379	12.6735	0.388299	0.330187
12.8383	12.6731	0.38823	0.330529
12.8388	12.6726	0.388043	0.329414
12.8393	12.6722	0.388253	0.325778
12.8397	12.6717	0.388683	0.324313
12.8402	12.6712	0.388327	0.322061
12.8407	12.6707	0.38835	0.321236
12.8412	12.6703	0.386653	0.318144
12.8416	12.6698	0.387855	0.317481
12.8421	12.6693	0.389207	0.313936
12.8426	12.6689	0.388041	0.311415
12.8431	12.6684	0.388372	0.309516
12.8435	12.6679	0.388942	0.308566
12.844	12.6675	0.389098	0.304207
12.8445	12.667	0.388588	0.302399
12.8449	12.6665	0.389174	0.299932
12.8454	12.666	0.389716	0.299441
12.8459	12.6656	0.388582	0.297645
12.8464	12.6651	0.38871	0.29342
12.8468	12.6646	0.388752	0.291858
12.8473	12.6641	0.389473	0.288204
12.8478	12.6637	0.389608	0.287572
12.8482	12.6632	0.38885	0.286252
12.8487	12.6627	0.39109	0.283283
12.8492	12.6623	0.388155	0.27998
12.8497	12.6618	0.391159	0.279221
12.8501	12.6613	0.389433	0.278249
12.8506	12.6609	0.388076	0.277094
12.8511	12.6604	0.387737	0.27426
12.8516	12.6599	0.388219	0.271998
12.852	12.6595	0.389064	0.270917
12.8525	12.659	0.388645	0.270465
12.853	12.6585	0.387664	0.269702
12.8534	12.6581	0.389358	0.267591
12.8539	12.6576	0.390638	0.267394
12.8544	12.6571	0.389454	0.267135
12.8549	12.6566	0.388481	0.269349
12.8553	12.6561	0.389521	0.268823
12.8558	12.6557	0.387272	0.268168
12.8563	12.6552	0.390943	0.26978
12.8567	12.6547	0.390414	0.271811
12.8572	12.6542	0.389167	0.273385
12.8577	12.6537	0.390098	0.275778
12.8582	12.6533	0.389954	0.276498
12.8586	12.6528	0.391167	0.279401
12.8591	12.6523	0.391409	0.28288
12.8596	12.6519	0.389064	0.28584
12.8601	12.6514	0.390129	0.287894
12.8605	12.6509	0.389712	0.288107
12.861	12.6504	0.392343	0.2907
12.8615	12.65	0.390702	0.293628
12.8619	12.6495	0.389874	0.297121
12.8624	12.649	0.389372	0.299675
12.8629	12.6486	0.390319	0.300671
12.8634	12.6481	0.390951	0.302171
12.8638	12.6476	0.390557	0.305476
12.8643	12.6471	0.390402	0.308162
12.8648	12.6467	0.38832	0.307359
12.8652	12.6462	0.38668	0.306585
12.8657	12.6457	0.388083	0.308054
12.8662	12.6452	0.387179	0.309986
12.8667	12.6447	0.386194	0.311369
12.8671	12.6443	0.389444	0.31367
12.8676	12.6438	0.387838	0.313513
12.8681	12.6433	0.388759	0.314381
12.8686	12.6429	0.390009	0.317316
12.869	12.6424	0.389882	0.31858
12.8695	12.6419	0.389112	0.31744
12.87	12.6415	0.388915	0.316371
12.8704	12.641	0.391057	0.317922
12.8709	12.6405	0.390405	0.318442
12.8714	12.6401	0.390241	0.319034
12.8719	12.6396	0.391285	0.318852
12.8723	12.6391	0.389823	0.31609
12.8728	12.6387	0.391919	0.318752
12.8733	12.6382	0.390945	0.317584
12.8737	12.6377	0.390584	0.317292
12.8742	12.6373	0.388674	0.314706
12.8747	12.6368	0.388522	0.31325
12.8752	12.6363	0.391271	0.313964
12.8756	12.6358	0.39085	0.313194
12.8761	12.6354	0.38976	0.31291
12.8766	12.6349	0.389142	0.312355
12.8771	12.6344	0.390854	0.309977
12.8775	12.6339	0.391586	0.309553
12.878	12.6335	0.390072	0.311924
12.8785	12.633	0.388233	0.3124
12.8789	12.6325	0.388399	0.312031
12.8794	12.6321	0.388908	0.309255
12.8799	12.6316	0.391389	0.310554
12.8804	12.6311	0.390535	0.312033
12.8808	12.6306	0.388945	0.312697
12.8813	12.6302	0.390468	0.312495
12.8818	12.6297	0.387921	0.310244
12.8822	12.6292	0.390077	0.311115
12.8827	12.6288	0.390008	0.311982
12.8832	12.6283	0.390288	0.313726
12.8837	12.6278	0.389116	0.311179
12.8841	12.6273	0.388719	0.310425
12.8846	12.6269	0.391582	0.311224
12.8851	12.6264	0.389346	0.31038
12.8856	12.6259	0.389136	0.310266
12.886	12.6254	0.387513	0.30947
12.8865	12.6249	0.3895	0.308159
12.887	12.6245	0.390458	0.30795
12.8874	12.624	0.389637	0.309146
12.8879	12.6235	0.388988	0.307074
12.8884	12.6231	0.389196	0.306041
12.8889	12.6226	0.389529	0.30394
12.8893	12.6221	0.390165	0.305388
12.8898	12.6217	0.38948	0.302971
12.8903	12.6212	0.38796	0.304501
12.8907	12.6207	0.388564	0.303452
12.8912	12.6202	0.387507	0.301514
12.8917	12.6197	0.390295	0.300267
12.8922	12.6193	0.389841	0.301329
12.8926	12.6188	0.388949	0.302682
12.8931	12.6184	0.388642	0.302808
12.8936	12.6179	0.388375	0.302137
12.8941	12.6174	0.389701	0.301211
12.8945	12.6169	0.38838	0.30223
12.895	12.6164	0.386528	0.30145
12.8955	12.616	0.386891	0.3031
12.8959	12.6155	0.387563	0.300636
12.8964	12.615	0.38858	0.300249
12.8969	12.6145	0.389194	0.301422
12.8974	12.6141	0.387717	0.301985
12.8978	12.6136	0.388476	0.298737
12.8983	12.6131	0.385548	0.298436
12.8988	12.6127	0.389941	0.297985
