# 1304     AichiSR QXAFS
# Start     : 8.9544
# End       : 9.0544
# Dir       : Backward
# Points    : 300
# ScanTime  : 1.01549
# Date      : 13.04.23 22:30
# Ring Cur. : 25.7[mA]
12.7557	12.6118	0.295223	0.224587
12.7562	12.6123	0.297311	0.22713
12.7566	12.6127	0.29705	0.228985
12.7571	12.6132	0.296442	0.230966
12.7576	12.6137	0.295426	0.229541
12.7581	12.6141	0.295951	0.229009
12.7585	12.6146	0.299501	0.233359
12.759	12.6151	0.298251	0.232961
12.7595	12.6156	0.296606	0.23307
12.7599	12.616	0.296244	0.231073
12.7604	12.6165	0.296849	0.230096
12.7609	12.617	0.297514	0.231436
12.7614	12.6175	0.298382	0.233171
12.7618	12.6179	0.298651	0.234653
12.7623	12.6184	0.2949	0.230932
12.7628	12.6189	0.298564	0.231061
12.7632	12.6193	0.300897	0.233569
12.7637	12.6198	0.299458	0.233382
12.7642	12.6203	0.297149	0.233802
12.7647	12.6208	0.299382	0.233723
12.7651	12.6213	0.297714	0.232572
12.7656	12.6217	0.297445	0.232281
12.7661	12.6222	0.301076	0.235398
12.7666	12.6227	0.298806	0.236289
12.767	12.6231	0.297611	0.233673
12.7675	12.6236	0.296341	0.233753
12.768	12.6241	0.299295	0.235271
12.7684	12.6245	0.297774	0.237012
12.7689	12.625	0.296629	0.237655
12.7694	12.6255	0.298115	0.237428
12.7699	12.626	0.297119	0.235561
12.7703	12.6265	0.299615	0.238118
12.7708	12.6269	0.299014	0.23974
12.7713	12.6274	0.29904	0.241449
12.7717	12.6279	0.297146	0.238649
12.7722	12.6284	0.298447	0.238979
12.7727	12.6288	0.299716	0.240383
12.7732	12.6293	0.299321	0.240881
12.7736	12.6298	0.298199	0.241852
12.7741	12.6302	0.298162	0.239539
12.7746	12.6307	0.298759	0.238028
12.7751	12.6312	0.297752	0.238307
12.7755	12.6317	0.300956	0.241148
12.776	12.6321	0.298032	0.240218
12.7765	12.6326	0.298775	0.237972
12.7769	12.6331	0.299307	0.236951
12.7774	12.6335	0.304696	0.240811
12.7779	12.634	0.303033	0.242735
12.7784	12.6345	0.299026	0.2402
12.7788	12.6349	0.30135	0.240256
12.7793	12.6354	0.300776	0.239328
12.7798	12.6359	0.300768	0.240959
12.7802	12.6364	0.301334	0.243694
12.7807	12.6368	0.299243	0.242674
12.7812	12.6373	0.299727	0.241933
12.7817	12.6378	0.300698	0.241498
12.7821	12.6383	0.300367	0.242764
12.7826	12.6387	0.299661	0.245055
12.7831	12.6392	0.299991	0.245619
12.7836	12.6396	0.300477	0.245685
12.784	12.6401	0.301996	0.245004
12.7845	12.6406	0.300506	0.245169
12.785	12.6411	0.303249	0.248152
12.7854	12.6415	0.301191	0.248554
12.7859	12.642	0.299533	0.245473
12.7864	12.6425	0.302147	0.246409
12.7869	12.6429	0.301989	0.246253
12.7873	12.6434	0.302128	0.246082
12.7878	12.6439	0.29946	0.244701
12.7883	12.6443	0.302561	0.244576
12.7887	12.6448	0.301159	0.243132
12.7892	12.6453	0.298494	0.242085
12.7897	12.6458	0.301608	0.243845
12.7902	12.6463	0.302577	0.243452
12.7906	12.6467	0.300152	0.238987
12.7911	12.6472	0.303345	0.239429
12.7916	12.6477	0.305864	0.240973
12.7921	12.6482	0.303769	0.240209
12.7925	12.6486	0.30406	0.237623
12.793	12.6491	0.30509	0.236161
12.7935	12.6496	0.30712	0.2351
12.7939	12.65	0.305085	0.232315
12.7944	12.6505	0.307802	0.232523
12.7949	12.651	0.3062	0.232496
12.7954	12.6515	0.304643	0.226515
12.7958	12.652	0.305905	0.22526
12.7963	12.6524	0.308324	0.225203
12.7968	12.6529	0.307204	0.225114
12.7972	12.6533	0.306989	0.222021
12.7977	12.6538	0.307299	0.218688
12.7982	12.6543	0.309687	0.219192
12.7987	12.6548	0.308472	0.217408
12.7991	12.6553	0.307974	0.216702
12.7996	12.6557	0.308877	0.217046
12.8001	12.6562	0.307177	0.212814
12.8006	12.6567	0.310451	0.213111
12.801	12.6572	0.309605	0.213181
12.8015	12.6576	0.309525	0.21451
12.802	12.6581	0.309655	0.212698
12.8024	12.6586	0.307359	0.212166
12.8029	12.6591	0.309834	0.213347
12.8034	12.6595	0.309124	0.214558
12.8039	12.66	0.310788	0.217309
12.8043	12.6604	0.309442	0.218865
12.8048	12.6609	0.308426	0.21709
12.8053	12.6614	0.31152	0.219746
12.8057	12.6619	0.312554	0.222965
12.8062	12.6623	0.311299	0.224468
12.8067	12.6628	0.311398	0.226505
12.8072	12.6633	0.311805	0.226159
12.8076	12.6637	0.312506	0.227119
12.8081	12.6642	0.312191	0.230947
12.8086	12.6647	0.314373	0.234096
12.8091	12.6651	0.313978	0.236028
12.8095	12.6656	0.309599	0.2336
12.81	12.6661	0.313855	0.236491
12.8105	12.6666	0.31416	0.240212
12.8109	12.6671	0.312309	0.241808
12.8114	12.6675	0.312755	0.244038
12.8119	12.668	0.312681	0.244438
12.8124	12.6685	0.314152	0.246564
12.8128	12.6689	0.31306	0.249606
12.8133	12.6694	0.315739	0.255196
12.8138	12.6699	0.314689	0.255386
12.8142	12.6703	0.312762	0.253445
12.8147	12.6708	0.316146	0.256061
12.8152	12.6713	0.315606	0.26041
12.8157	12.6718	0.314173	0.261839
12.8161	12.6722	0.314387	0.263092
12.8166	12.6727	0.31346	0.263776
12.8171	12.6731	0.313939	0.264444
12.8176	12.6736	0.313167	0.266738
12.818	12.6741	0.313313	0.269057
12.8185	12.6746	0.316128	0.271324
12.819	12.675	0.313007	0.268093
12.8194	12.6755	0.316185	0.268676
12.8199	12.676	0.314702	0.272112
12.8204	12.6765	0.316107	0.273941
12.8209	12.677	0.315384	0.272199
12.8213	12.6775	0.314424	0.271733
12.8218	12.6779	0.316777	0.27324
12.8223	12.6784	0.31601	0.272931
12.8227	12.6789	0.315915	0.273617
12.8232	12.6793	0.317781	0.271954
12.8237	12.6798	0.316189	0.268334
12.8242	12.6803	0.315662	0.266698
12.8246	12.6807	0.317543	0.267802
12.8251	12.6812	0.315955	0.266467
12.8256	12.6817	0.31593	0.263029
12.8261	12.6822	0.315424	0.258612
12.8265	12.6826	0.318535	0.257294
12.827	12.6831	0.313361	0.255563
12.8275	12.6836	0.316897	0.254554
12.8279	12.684	0.316975	0.252952
12.8284	12.6845	0.314985	0.247657
12.8289	12.685	0.315841	0.246408
12.8294	12.6855	0.317927	0.243853
12.8298	12.686	0.318242	0.241637
12.8303	12.6864	0.316838	0.237612
12.8308	12.6869	0.316725	0.233215
12.8312	12.6874	0.318964	0.230571
12.8317	12.6879	0.316693	0.227404
12.8322	12.6883	0.319144	0.226758
12.8327	12.6888	0.319124	0.223114
12.8331	12.6893	0.317728	0.21906
12.8336	12.6897	0.319406	0.219329
12.8341	12.6902	0.318416	0.220475
12.8346	12.6907	0.317434	0.221105
12.835	12.6911	0.31766	0.223047
12.8355	12.6916	0.319513	0.22584
12.836	12.6921	0.318593	0.227795
12.8364	12.6925	0.317373	0.233421
12.8369	12.693	0.320473	0.240779
12.8374	12.6935	0.319624	0.244886
12.8379	12.6939	0.31732	0.245705
12.8383	12.6944	0.319626	0.250344
12.8388	12.6949	0.318737	0.255022
12.8393	12.6954	0.318294	0.257304
12.8397	12.6958	0.317548	0.25831
12.8402	12.6963	0.319477	0.258709
12.8407	12.6968	0.318855	0.258855
12.8412	12.6973	0.317299	0.257367
12.8416	12.6977	0.319213	0.258633
12.8421	12.6982	0.31968	0.255924
12.8426	12.6987	0.318813	0.25087
12.8431	12.6991	0.31969	0.248739
12.8435	12.6996	0.319108	0.247316
12.844	12.7001	0.31777	0.242183
12.8445	12.7005	0.317469	0.237465
12.8449	12.701	0.317983	0.232472
12.8454	12.7015	0.320217	0.230611
12.8459	12.702	0.315828	0.22706
12.8464	12.7024	0.317133	0.226926
12.8468	12.7029	0.318733	0.225069
12.8473	12.7034	0.317539	0.222478
12.8478	12.7038	0.318251	0.224929
12.8482	12.7043	0.318824	0.229154
12.8487	12.7048	0.319119	0.23435
12.8492	12.7053	0.318392	0.237775
12.8497	12.7058	0.319709	0.245966
12.8501	12.7062	0.321683	0.255249
12.8506	12.7067	0.317755	0.262584
12.8511	12.7072	0.319346	0.275795
12.8516	12.7077	0.319689	0.28744
12.852	12.7082	0.318086	0.295755
12.8525	12.7086	0.320433	0.310072
12.853	12.7091	0.319388	0.32481
12.8534	12.7096	0.319007	0.338209
12.8539	12.71	0.318845	0.350339
12.8544	12.7105	0.32118	0.364993
12.8549	12.711	0.322029	0.376789
12.8553	12.7115	0.320396	0.389732
12.8558	12.7119	0.321035	0.404189
12.8563	12.7124	0.322433	0.413961
12.8567	12.7129	0.322692	0.42191
12.8572	12.7133	0.320757	0.432186
12.8577	12.7138	0.32104	0.442388
12.8582	12.7143	0.318848	0.448823
12.8586	12.7147	0.318888	0.454673
12.8591	12.7152	0.320019	0.462924
12.8596	12.7157	0.319824	0.471106
12.8601	12.7162	0.320347	0.481252
12.8605	12.7166	0.319097	0.491535
12.861	12.7171	0.319305	0.497431
12.8615	12.7176	0.319288	0.502534
12.8619	12.7181	0.321323	0.509502
12.8624	12.7185	0.320894	0.510058
12.8629	12.719	0.318372	0.507435
12.8634	12.7195	0.319094	0.503006
12.8638	12.7199	0.321293	0.500642
12.8643	12.7204	0.318281	0.495498
12.8648	12.7209	0.318573	0.494317
12.8652	12.7214	0.317597	0.498738
12.8657	12.7218	0.31909	0.50242
12.8662	12.7223	0.318416	0.51536
12.8667	12.7227	0.318023	0.536425
12.8671	12.7232	0.317682	0.569775
12.8676	12.7237	0.314851	0.609155
12.8681	12.7241	0.314463	0.657384
12.8686	12.7246	0.316474	0.712323
12.869	12.7251	0.314713	0.759484
12.8695	12.7256	0.31432	0.799998
12.87	12.726	0.315089	0.840434
12.8704	12.7265	0.316974	0.864145
12.8709	12.727	0.317301	0.880336
12.8714	12.7275	0.318768	0.898145
12.8719	12.728	0.320531	0.914018
12.8723	12.7284	0.316321	0.914939
12.8728	12.7289	0.318298	0.921832
12.8733	12.7294	0.319067	0.9268
12.8737	12.7298	0.317839	0.933894
12.8742	12.7303	0.317185	0.936513
12.8747	12.7308	0.31823	0.94424
12.8752	12.7313	0.319126	0.945361
12.8756	12.7317	0.320132	0.947106
12.8761	12.7322	0.319597	0.951263
12.8766	12.7327	0.320248	0.95511
12.8771	12.7331	0.319113	0.958886
12.8775	12.7336	0.319583	0.955591
12.878	12.7341	0.320352	0.958269
12.8785	12.7345	0.319898	0.959063
12.8789	12.735	0.319723	0.958451
12.8794	12.7355	0.31999	0.964491
12.8799	12.736	0.318397	0.962093
12.8804	12.7365	0.320388	0.966913
12.8808	12.737	0.32046	0.962738
12.8813	12.7374	0.319924	0.965366
12.8818	12.7379	0.31995	0.972329
12.8822	12.7384	0.321078	0.969186
12.8827	12.7389	0.320553	0.969425
12.8832	12.7393	0.322028	0.971736
12.8837	12.7398	0.320883	0.972168
12.8841	12.7402	0.319929	0.97531
12.8846	12.7407	0.320915	0.974834
12.8851	12.7412	0.32257	0.973179
12.8856	12.7417	0.321178	0.970834
12.886	12.7421	0.321863	0.978392
12.8865	12.7426	0.321473	0.978997
12.887	12.7431	0.320829	0.974713
12.8874	12.7435	0.323341	0.975036
12.8879	12.744	0.322605	0.979649
12.8884	12.7445	0.319791	0.974958
12.8889	12.745	0.322283	0.97965
12.8893	12.7454	0.322555	0.98167
12.8898	12.7459	0.323338	0.980028
12.8903	12.7464	0.322661	0.981104
12.8907	12.7469	0.321899	0.982603
12.8912	12.7474	0.323216	0.984876
12.8917	12.7478	0.322666	0.983468
12.8922	12.7483	0.325785	0.987723
12.8926	12.7488	0.323844	0.981944
12.8931	12.7492	0.322347	0.9804
12.8936	12.7497	0.322009	0.986261
12.8941	12.7501	0.321831	0.981935
12.8945	12.7506	0.321952	0.978495
12.895	12.7511	0.322922	0.983936
12.8955	12.7516	0.322652	0.983855
12.8959	12.752	0.321791	0.983013
12.8964	12.7525	0.32228	0.980347
12.8969	12.753	0.325778	0.986767
12.8974	12.7534	0.324004	0.987214
12.8978	12.7539	0.321034	0.982176
12.8983	12.7544	0.321347	0.988229
12.8988	12.7548	0.324455	0.990993
