# 1304     AichiSR QXAFS
# Start     : 8.9544
# End       : 9.0544
# Dir       : Forward
# Points    : 300
# ScanTime  : 1.01549
# Date      : 13.04.23 22:33
# Ring Cur. : 25.6[mA]
12.7557	12.7558	0.260439	0.797939
12.7562	12.7553	0.26031	0.794146
12.7566	12.7548	0.260805	0.793128
12.7571	12.7544	0.257637	0.794076
12.7576	12.7539	0.258036	0.792082
12.7581	12.7534	0.257196	0.78806
12.7585	12.753	0.257768	0.784537
12.759	12.7525	0.258293	0.78324
12.7595	12.752	0.258053	0.783237
12.7599	12.7516	0.255446	0.781247
12.7604	12.7511	0.255461	0.778177
12.7609	12.7506	0.253769	0.774881
12.7614	12.7501	0.255556	0.773663
12.7618	12.7497	0.252938	0.774546
12.7623	12.7492	0.251967	0.773164
12.7628	12.7488	0.252198	0.770247
12.7632	12.7483	0.25181	0.766151
12.7637	12.7478	0.252077	0.764671
12.7642	12.7474	0.251251	0.763653
12.7647	12.7469	0.248557	0.762196
12.7651	12.7464	0.248972	0.758845
12.7656	12.7459	0.248404	0.753652
12.7661	12.7455	0.248354	0.75464
12.7666	12.745	0.247292	0.755295
12.767	12.7445	0.246472	0.751974
12.7675	12.744	0.24539	0.750267
12.768	12.7436	0.245809	0.74597
12.7684	12.7431	0.245287	0.744391
12.7689	12.7426	0.245361	0.744186
12.7694	12.7422	0.242594	0.743877
12.7699	12.7417	0.242621	0.736656
12.7703	12.7412	0.242215	0.735462
12.7708	12.7407	0.242933	0.732377
12.7713	12.7403	0.241919	0.73226
12.7717	12.7398	0.239419	0.729259
12.7722	12.7393	0.240041	0.724986
12.7727	12.7389	0.23878	0.721051
12.7732	12.7384	0.238678	0.721089
12.7736	12.7379	0.238329	0.721104
12.7741	12.7374	0.235136	0.71845
12.7746	12.737	0.236291	0.711397
12.7751	12.7365	0.235626	0.709291
12.7755	12.736	0.234306	0.708722
12.776	12.7355	0.234517	0.707665
12.7765	12.735	0.231885	0.706068
12.7769	12.7346	0.233635	0.699606
12.7774	12.7341	0.232317	0.696787
12.7779	12.7336	0.230947	0.694628
12.7784	12.7331	0.230884	0.693043
12.7788	12.7327	0.228497	0.68955
12.7793	12.7322	0.227833	0.683477
12.7798	12.7317	0.227116	0.679399
12.7802	12.7313	0.228002	0.678189
12.7807	12.7308	0.227601	0.675597
12.7812	12.7303	0.224974	0.672729
12.7817	12.7298	0.225521	0.666118
12.7821	12.7294	0.225358	0.659967
12.7826	12.7289	0.224778	0.655799
12.7831	12.7284	0.224471	0.65062
12.7836	12.728	0.221237	0.646083
12.784	12.7275	0.22102	0.635454
12.7845	12.727	0.220667	0.627302
12.785	12.7265	0.220352	0.61795
12.7854	12.7261	0.218349	0.606309
12.7859	12.7256	0.215409	0.590085
12.7864	12.7251	0.215362	0.567846
12.7869	12.7246	0.213702	0.540281
12.7873	12.7242	0.213696	0.509277
12.7878	12.7237	0.21275	0.477477
12.7883	12.7232	0.212608	0.442305
12.7887	12.7228	0.21297	0.407087
12.7892	12.7223	0.214212	0.377095
12.7897	12.7218	0.212468	0.357164
12.7902	12.7214	0.212488	0.343093
12.7906	12.7209	0.210604	0.333705
12.7911	12.7204	0.210708	0.325929
12.7916	12.7199	0.209497	0.324245
12.7921	12.7195	0.20963	0.325814
12.7925	12.719	0.208098	0.328575
12.793	12.7186	0.20594	0.328946
12.7935	12.7181	0.207076	0.329472
12.7939	12.7176	0.20658	0.327511
12.7944	12.7171	0.205784	0.326187
12.7949	12.7167	0.205507	0.324401
12.7954	12.7162	0.202328	0.316689
12.7958	12.7157	0.202835	0.309291
12.7963	12.7152	0.201915	0.302143
12.7968	12.7147	0.200676	0.296637
12.7972	12.7143	0.201016	0.291064
12.7977	12.7138	0.199238	0.285595
12.7982	12.7133	0.198524	0.276962
12.7987	12.7129	0.198475	0.271629
12.7991	12.7124	0.197324	0.26522
12.7996	12.7119	0.196951	0.259908
12.8001	12.7115	0.194773	0.25285
12.8006	12.711	0.194768	0.243463
12.801	12.7105	0.194519	0.234863
12.8015	12.71	0.193286	0.227829
12.802	12.7096	0.193168	0.219496
12.8024	12.7091	0.190801	0.211654
12.8029	12.7086	0.191493	0.201202
12.8034	12.7082	0.191225	0.190793
12.8039	12.7077	0.189596	0.1835
12.8043	12.7072	0.189079	0.177456
12.8048	12.7067	0.188347	0.169588
12.8053	12.7063	0.187822	0.159441
12.8057	12.7058	0.187358	0.153585
12.8062	12.7053	0.185951	0.148063
12.8067	12.7048	0.184441	0.143703
12.8072	12.7043	0.184401	0.139282
12.8076	12.7038	0.183891	0.13486
12.8081	12.7034	0.18354	0.13099
12.8086	12.7029	0.182902	0.129799
12.8091	12.7024	0.18193	0.129543
12.8095	12.702	0.179316	0.12904
12.81	12.7015	0.178926	0.128752
12.8105	12.701	0.178769	0.129476
12.8109	12.7006	0.177873	0.130922
12.8114	12.7001	0.177411	0.133261
12.8119	12.6996	0.176077	0.134357
12.8124	12.6992	0.175324	0.134631
12.8128	12.6987	0.175606	0.136483
12.8133	12.6982	0.175095	0.137912
12.8138	12.6978	0.172664	0.140527
12.8142	12.6973	0.172532	0.140219
12.8147	12.6968	0.171493	0.139469
12.8152	12.6963	0.172177	0.140263
12.8157	12.6959	0.171059	0.140396
12.8161	12.6954	0.170699	0.140918
12.8166	12.6949	0.169044	0.139286
12.8171	12.6944	0.168488	0.136404
12.8176	12.694	0.16935	0.135936
12.818	12.6935	0.168992	0.134869
12.8185	12.693	0.166793	0.132044
12.819	12.6926	0.164903	0.127879
12.8194	12.6921	0.164361	0.124103
12.8199	12.6916	0.165291	0.121132
12.8204	12.6912	0.163332	0.119742
12.8209	12.6907	0.162695	0.117221
12.8213	12.6902	0.161336	0.114888
12.8218	12.6897	0.161033	0.111907
12.8223	12.6893	0.161397	0.111836
12.8227	12.6888	0.159626	0.111884
12.8232	12.6884	0.159694	0.112649
12.8237	12.6879	0.158686	0.11343
12.8242	12.6874	0.157604	0.112106
12.8246	12.6869	0.158053	0.113631
12.8251	12.6864	0.156241	0.115866
12.8256	12.686	0.155551	0.116854
12.8261	12.6855	0.154858	0.118322
12.8265	12.685	0.153316	0.117475
12.827	12.6845	0.15419	0.119161
12.8275	12.684	0.152198	0.121172
12.8279	12.6836	0.151792	0.121981
12.8284	12.6831	0.150156	0.122437
12.8289	12.6826	0.150075	0.1207
12.8294	12.6822	0.151143	0.122672
12.8298	12.6817	0.150164	0.124395
12.8303	12.6812	0.148499	0.126194
12.8308	12.6808	0.148516	0.126137
12.8312	12.6803	0.148003	0.125031
12.8317	12.6798	0.149009	0.125904
12.8322	12.6793	0.146925	0.127882
12.8327	12.6789	0.146056	0.128799
12.8331	12.6784	0.146025	0.127656
12.8336	12.6779	0.144697	0.126552
12.8341	12.6775	0.145865	0.126292
12.8346	12.677	0.144583	0.125923
12.835	12.6765	0.143099	0.126726
12.8355	12.676	0.142661	0.125617
12.836	12.6755	0.141812	0.124138
12.8364	12.6751	0.142804	0.123382
12.8369	12.6746	0.141372	0.123637
12.8374	12.6741	0.13981	0.123327
12.8379	12.6736	0.139774	0.121283
12.8383	12.6732	0.138891	0.119371
12.8388	12.6727	0.13972	0.119184
12.8393	12.6722	0.13765	0.119313
12.8397	12.6718	0.136342	0.117831
12.8402	12.6713	0.137005	0.116517
12.8407	12.6708	0.13554	0.113938
12.8412	12.6703	0.137045	0.113181
12.8416	12.6699	0.13522	0.112787
12.8421	12.6694	0.133742	0.112232
12.8426	12.669	0.133267	0.110567
12.8431	12.6685	0.132324	0.107558
12.8435	12.668	0.134601	0.106953
12.844	12.6676	0.132579	0.107021
12.8445	12.6671	0.130625	0.105571
12.8449	12.6666	0.130064	0.103455
12.8454	12.6661	0.130175	0.101756
12.8459	12.6657	0.130651	0.100102
12.8464	12.6652	0.12939	0.100148
12.8468	12.6647	0.127354	0.100018
12.8473	12.6642	0.128349	0.0978089
12.8478	12.6637	0.127079	0.0954136
12.8482	12.6633	0.127994	0.0955199
12.8487	12.6628	0.126517	0.0952476
12.8492	12.6624	0.124552	0.0943952
12.8497	12.6619	0.124531	0.0922744
12.8501	12.6614	0.123887	0.0906551
12.8506	12.661	0.124822	0.0900863
12.8511	12.6605	0.124308	0.0902356
12.8516	12.66	0.121381	0.0891171
12.852	12.6595	0.122636	0.0880641
12.8525	12.6591	0.121373	0.0859775
12.853	12.6586	0.121786	0.085856
12.8534	12.6581	0.120728	0.086332
12.8539	12.6577	0.11842	0.0854718
12.8544	12.6572	0.11917	0.0842562
12.8549	12.6567	0.118121	0.0827553
12.8553	12.6562	0.118911	0.0833418
12.8558	12.6558	0.117642	0.0840892
12.8563	12.6553	0.115382	0.084023
12.8567	12.6548	0.116253	0.082888
12.8572	12.6543	0.115871	0.0821967
12.8577	12.6538	0.116448	0.0833011
12.8582	12.6534	0.114716	0.0844407
12.8586	12.6529	0.113657	0.0843851
12.8591	12.6524	0.114069	0.0843897
12.8596	12.652	0.113467	0.0837786
12.8601	12.6515	0.112729	0.0839198
12.8605	12.651	0.113094	0.0857614
12.861	12.6505	0.110939	0.0863309
12.8615	12.6501	0.1107	0.0855124
12.8619	12.6496	0.110342	0.0846011
12.8624	12.6491	0.111075	0.0858311
12.8629	12.6487	0.109886	0.0871404
12.8634	12.6482	0.107543	0.0875852
12.8638	12.6477	0.108298	0.0865138
12.8643	12.6472	0.10754	0.0859057
12.8648	12.6468	0.108014	0.0865871
12.8652	12.6463	0.106322	0.0875786
12.8657	12.6458	0.103648	0.0871597
12.8662	12.6453	0.104063	0.0866506
12.8667	12.6448	0.104413	0.0853076
12.8671	12.6444	0.104825	0.0859948
12.8676	12.6439	0.104288	0.0873758
12.8681	12.6434	0.10253	0.0873707
12.8686	12.6429	0.102657	0.0859093
12.869	12.6425	0.102685	0.0851296
12.8695	12.642	0.101863	0.0857008
12.87	12.6416	0.102286	0.0858889
12.8704	12.6411	0.100059	0.0854221
12.8709	12.6406	0.100713	0.0845187
12.8714	12.6401	0.100385	0.0830866
12.8719	12.6397	0.100283	0.0835982
12.8723	12.6392	0.0996562	0.0843559
12.8728	12.6388	0.0974737	0.0831112
12.8733	12.6383	0.0985462	0.0820311
12.8737	12.6378	0.0984477	0.0808672
12.8742	12.6373	0.0981494	0.0813914
12.8747	12.6369	0.0973945	0.0814258
12.8752	12.6364	0.0945011	0.0806858
12.8756	12.6359	0.0961486	0.0787052
12.8761	12.6354	0.0963613	0.0774319
12.8766	12.635	0.0953768	0.0785813
12.8771	12.6345	0.0944756	0.0793015
12.8775	12.634	0.0929097	0.0777092
12.878	12.6335	0.0938377	0.0767248
12.8785	12.6331	0.092914	0.0746967
12.8789	12.6326	0.0926758	0.0757916
12.8794	12.6322	0.0921985	0.0770738
12.8799	12.6317	0.0904033	0.0757077
12.8804	12.6312	0.0906385	0.0743673
12.8808	12.6307	0.0900499	0.0736765
12.8813	12.6302	0.0903312	0.0740241
12.8818	12.6298	0.089215	0.0744896
12.8822	12.6293	0.0869857	0.073977
12.8827	12.6289	0.0876616	0.0722487
12.8832	12.6284	0.0879968	0.0715533
12.8837	12.6279	0.087135	0.0718006
12.8841	12.6274	0.0871204	0.0728727
12.8846	12.627	0.0854287	0.0717484
12.8851	12.6265	0.0847223	0.0697059
12.8856	12.626	0.084684	0.0691867
12.886	12.6255	0.0839321	0.0692876
12.8865	12.625	0.0835929	0.0691282
12.887	12.6246	0.0812835	0.0682881
12.8874	12.6241	0.081399	0.0668059
12.8879	12.6236	0.0817657	0.065543
12.8884	12.6231	0.0810877	0.0655212
12.8889	12.6227	0.0804483	0.0666072
12.8893	12.6222	0.0779188	0.0650115
12.8898	12.6217	0.0778933	0.0633027
12.8903	12.6213	0.0782016	0.0632152
12.8907	12.6208	0.0775348	0.0630301
12.8912	12.6203	0.0774078	0.0632898
12.8917	12.6198	0.0753393	0.0616897
12.8922	12.6194	0.0744987	0.0599351
12.8926	12.6189	0.0752329	0.0599476
12.8931	12.6184	0.0731557	0.0603214
12.8936	12.618	0.0737943	0.0607663
12.8941	12.6175	0.0715384	0.0600752
12.8945	12.617	0.0714034	0.0577878
12.895	12.6165	0.0720014	0.0572916
12.8955	12.6161	0.0709195	0.0574643
12.8959	12.6156	0.0701939	0.0588345
12.8964	12.6151	0.0686418	0.0571086
12.8969	12.6146	0.0684306	0.0551801
12.8974	12.6142	0.0690365	0.0545018
12.8978	12.6137	0.0679211	0.0550429
12.8983	12.6132	0.0666699	0.0553833
12.8988	12.6127	0.0655085	0.053818
