# 1304     AichiSR QXAFS
# Start     : 8.9544
# End       : 9.0544
# Dir       : Forward
# Points    : 300
# ScanTime  : 1.01549
# Date      : 13.04.23 22:20
# Ring Cur. : 25.5[mA]
12.7557	12.7557	0.397758	1.21764
12.7562	12.7552	0.398596	1.21429
12.7566	12.7548	0.398857	1.21656
12.7571	12.7543	0.39847	1.21563
12.7576	12.7538	0.399936	1.21698
12.7581	12.7533	0.396262	1.217
12.7585	12.7529	0.398772	1.21655
12.759	12.7524	0.397201	1.21012
12.7595	12.752	0.398319	1.21382
12.7599	12.7515	0.399498	1.21672
12.7604	12.751	0.396496	1.21383
12.7609	12.7505	0.397895	1.21181
12.7614	12.7501	0.398074	1.20881
12.7618	12.7496	0.399147	1.21201
12.7623	12.7491	0.399147	1.21149
12.7628	12.7487	0.397266	1.21197
12.7632	12.7482	0.395587	1.20636
12.7637	12.7477	0.397752	1.20736
12.7642	12.7473	0.397435	1.20609
12.7647	12.7468	0.39744	1.20886
12.7651	12.7463	0.395904	1.2111
12.7656	12.7458	0.397184	1.20383
12.7661	12.7454	0.396174	1.20627
12.7666	12.7449	0.396049	1.20476
12.767	12.7444	0.399332	1.20781
12.7675	12.7439	0.3959	1.2055
12.768	12.7435	0.394472	1.20086
12.7684	12.743	0.396065	1.20145
12.7689	12.7425	0.395254	1.20141
12.7694	12.7421	0.395972	1.20287
12.7699	12.7416	0.393855	1.19967
12.7703	12.7411	0.393802	1.19641
12.7708	12.7406	0.395408	1.19559
12.7713	12.7402	0.395367	1.19514
12.7717	12.7397	0.395134	1.20045
12.7722	12.7392	0.394238	1.19706
12.7727	12.7388	0.395056	1.19513
12.7732	12.7383	0.39554	1.19091
12.7736	12.7378	0.394677	1.19137
12.7741	12.7374	0.39544	1.19302
12.7746	12.7369	0.393205	1.19139
12.7751	12.7364	0.394082	1.18792
12.7755	12.7359	0.394969	1.18431
12.776	12.7354	0.394779	1.18494
12.7765	12.735	0.395346	1.18815
12.7769	12.7345	0.392071	1.1854
12.7774	12.734	0.393669	1.18166
12.7779	12.7335	0.394004	1.1797
12.7784	12.733	0.392431	1.17659
12.7788	12.7326	0.393602	1.17604
12.7793	12.7321	0.392878	1.17589
12.7798	12.7317	0.392965	1.16747
12.7802	12.7312	0.394502	1.16531
12.7807	12.7307	0.398107	1.17449
12.7812	12.7302	0.39459	1.16782
12.7817	12.7297	0.392111	1.15992
12.7821	12.7293	0.390845	1.15399
12.7826	12.7288	0.3931	1.14526
12.7831	12.7284	0.392405	1.1368
12.7836	12.7279	0.392649	1.13258
12.784	12.7274	0.389978	1.12522
12.7845	12.7269	0.389433	1.10279
12.785	12.7265	0.390525	1.08631
12.7854	12.726	0.389736	1.06782
12.7859	12.7255	0.388985	1.041
12.7864	12.725	0.385324	1.00271
12.7869	12.7245	0.3867	0.953067
12.7873	12.7241	0.388421	0.897292
12.7878	12.7236	0.387666	0.839117
12.7883	12.7231	0.39061	0.782913
12.7887	12.7227	0.391414	0.730094
12.7892	12.7222	0.390401	0.676522
12.7897	12.7218	0.392106	0.644247
12.7902	12.7213	0.392361	0.626509
12.7906	12.7208	0.391421	0.613308
12.7911	12.7203	0.391592	0.609896
12.7916	12.7199	0.39218	0.606373
12.7921	12.7194	0.39224	0.609407
12.7925	12.7189	0.39274	0.613529
12.793	12.7185	0.39428	0.622189
12.7935	12.718	0.3922	0.624108
12.7939	12.7175	0.392431	0.620637
12.7944	12.7171	0.393254	0.618038
12.7949	12.7166	0.392924	0.612427
12.7954	12.7161	0.393879	0.607224
12.7958	12.7156	0.391711	0.595962
12.7963	12.7151	0.392784	0.583973
12.7968	12.7147	0.393104	0.570856
12.7972	12.7142	0.3931	0.561805
12.7977	12.7137	0.393983	0.5549
12.7982	12.7132	0.393212	0.544976
12.7987	12.7128	0.393963	0.531995
12.7991	12.7123	0.393865	0.521842
12.7996	12.7118	0.394181	0.509629
12.8001	12.7114	0.394255	0.497193
12.8006	12.7109	0.392534	0.484086
12.801	12.7104	0.393656	0.471375
12.8015	12.7099	0.395901	0.452688
12.802	12.7095	0.393853	0.436574
12.8024	12.709	0.394409	0.423521
12.8029	12.7086	0.3934	0.406701
12.8034	12.7081	0.394047	0.388069
12.8039	12.7076	0.394632	0.37249
12.8043	12.7071	0.394675	0.358357
12.8048	12.7066	0.394785	0.344387
12.8053	12.7062	0.393805	0.330546
12.8057	12.7057	0.39486	0.317283
12.8062	12.7052	0.395592	0.307007
12.8067	12.7047	0.395291	0.298573
12.8072	12.7042	0.394757	0.291167
12.8076	12.7038	0.394311	0.285289
12.8081	12.7033	0.394117	0.279882
12.8086	12.7028	0.394144	0.275192
12.8091	12.7024	0.393858	0.277052
12.8095	12.7019	0.394719	0.27991
12.81	12.7014	0.393952	0.282003
12.8105	12.7009	0.393657	0.282549
12.8109	12.7005	0.395539	0.287027
12.8114	12.7	0.394208	0.292615
12.8119	12.6995	0.394357	0.297427
12.8124	12.6991	0.395176	0.301817
12.8128	12.6986	0.394852	0.303883
12.8133	12.6981	0.395547	0.307748
12.8138	12.6977	0.393686	0.3124
12.8142	12.6972	0.394996	0.317359
12.8147	12.6967	0.394669	0.318847
12.8152	12.6963	0.395692	0.31947
12.8157	12.6958	0.395023	0.320808
12.8161	12.6953	0.394234	0.318455
12.8166	12.6948	0.394141	0.319343
12.8171	12.6943	0.394803	0.318126
12.8176	12.6939	0.39463	0.312669
12.818	12.6934	0.396141	0.307307
12.8185	12.6929	0.394211	0.302901
12.819	12.6925	0.39491	0.298788
12.8194	12.692	0.394935	0.293646
12.8199	12.6915	0.395827	0.283772
12.8204	12.6911	0.394885	0.280119
12.8209	12.6906	0.394505	0.27673
12.8213	12.6901	0.39394	0.273956
12.8218	12.6897	0.394072	0.2726
12.8223	12.6892	0.395252	0.269538
12.8227	12.6887	0.39541	0.271205
12.8232	12.6883	0.394976	0.274904
12.8237	12.6878	0.393813	0.277733
12.8242	12.6873	0.394132	0.279448
12.8246	12.6868	0.392685	0.282235
12.8251	12.6864	0.394654	0.287447
12.8256	12.6859	0.393165	0.292931
12.8261	12.6854	0.391762	0.296568
12.8265	12.6849	0.392394	0.301115
12.827	12.6844	0.392553	0.301968
12.8275	12.684	0.391431	0.305343
12.8279	12.6835	0.393632	0.308982
12.8284	12.683	0.391458	0.313325
12.8289	12.6826	0.393109	0.315776
12.8294	12.6821	0.393869	0.31781
12.8298	12.6816	0.395704	0.322497
12.8303	12.6812	0.394869	0.326912
12.8308	12.6807	0.394351	0.329565
12.8312	12.6802	0.394978	0.331957
12.8317	12.6797	0.394044	0.331885
12.8322	12.6793	0.395439	0.336635
12.8327	12.6788	0.395752	0.339362
12.8331	12.6783	0.394259	0.3403
12.8336	12.6779	0.395282	0.340192
12.8341	12.6774	0.393614	0.338862
12.8346	12.6769	0.395893	0.34014
12.835	12.6764	0.394468	0.34081
12.8355	12.6759	0.394354	0.342516
12.836	12.6755	0.395978	0.341455
12.8364	12.675	0.393654	0.33865
12.8369	12.6745	0.395855	0.337038
12.8374	12.674	0.394084	0.336796
12.8379	12.6735	0.393454	0.336898
12.8383	12.6731	0.392837	0.334221
12.8388	12.6726	0.39492	0.332659
12.8393	12.6722	0.396571	0.331825
12.8397	12.6717	0.395971	0.330918
12.8402	12.6712	0.393796	0.328403
12.8407	12.6707	0.394376	0.327006
12.8412	12.6703	0.393718	0.322396
12.8416	12.6698	0.395747	0.321416
12.8421	12.6693	0.394207	0.320438
12.8426	12.6689	0.394993	0.317907
12.8431	12.6684	0.394142	0.314547
12.8435	12.6679	0.395037	0.311346
12.844	12.6675	0.394612	0.309136
12.8445	12.667	0.394099	0.308373
12.8449	12.6665	0.393313	0.305378
12.8454	12.666	0.395824	0.302873
12.8459	12.6656	0.393521	0.297924
12.8464	12.6651	0.394957	0.296644
12.8468	12.6646	0.394112	0.29659
12.8473	12.6641	0.393344	0.294283
12.8478	12.6637	0.393001	0.291648
12.8482	12.6632	0.394324	0.287833
12.8487	12.6627	0.394893	0.286544
12.8492	12.6623	0.393408	0.286105
12.8497	12.6618	0.392806	0.283681
12.8501	12.6613	0.393159	0.28189
12.8506	12.6609	0.392136	0.277447
12.8511	12.6604	0.393782	0.276914
12.8516	12.6599	0.393992	0.276098
12.852	12.6595	0.392995	0.275042
12.8525	12.659	0.392407	0.273086
12.853	12.6585	0.392547	0.270587
12.8534	12.6581	0.393543	0.269978
12.8539	12.6576	0.392783	0.271527
12.8544	12.6571	0.391937	0.271143
12.8549	12.6566	0.391491	0.269343
12.8553	12.6561	0.391567	0.268359
12.8558	12.6557	0.392359	0.270623
12.8563	12.6552	0.393065	0.272541
12.8567	12.6547	0.390195	0.273317
12.8572	12.6542	0.393171	0.274593
12.8577	12.6537	0.392508	0.275021
12.8582	12.6533	0.394	0.277899
12.8586	12.6528	0.392161	0.281089
12.8591	12.6523	0.390806	0.284061
12.8596	12.6519	0.391811	0.285535
12.8601	12.6514	0.391147	0.287666
12.8605	12.6509	0.392554	0.290019
12.861	12.6505	0.393081	0.293147
12.8615	12.65	0.39128	0.295928
12.8619	12.6495	0.391131	0.298704
12.8624	12.649	0.391143	0.298003
12.8629	12.6486	0.39124	0.300511
12.8634	12.6481	0.390061	0.304811
12.8638	12.6476	0.38982	0.306297
12.8643	12.6472	0.389174	0.30515
12.8648	12.6467	0.387743	0.30695
12.8652	12.6462	0.388403	0.307733
12.8657	12.6457	0.388521	0.311569
12.8662	12.6452	0.386182	0.311407
12.8667	12.6448	0.385456	0.31193
12.8671	12.6443	0.388687	0.311902
12.8676	12.6438	0.390014	0.313959
12.8681	12.6433	0.387673	0.314575
12.8686	12.6429	0.387355	0.316572
12.869	12.6424	0.389226	0.316287
12.8695	12.642	0.390253	0.31539
12.87	12.6415	0.389515	0.316484
12.8704	12.641	0.390515	0.318192
12.8709	12.6405	0.388289	0.318902
12.8714	12.6401	0.389453	0.315837
12.8719	12.6396	0.389962	0.316947
12.8723	12.6391	0.390652	0.316899
12.8728	12.6387	0.389896	0.316745
12.8733	12.6382	0.389978	0.315952
12.8737	12.6377	0.389372	0.314
12.8742	12.6373	0.389325	0.313392
12.8747	12.6368	0.388249	0.311193
12.8752	12.6363	0.390876	0.314646
12.8756	12.6358	0.38821	0.311928
12.8761	12.6354	0.387234	0.31009
12.8766	12.6349	0.389459	0.309568
12.8771	12.6344	0.389377	0.310719
12.8775	12.6339	0.388538	0.31023
12.878	12.6335	0.386367	0.309753
12.8785	12.633	0.388079	0.30951
12.8789	12.6325	0.387207	0.308268
12.8794	12.6321	0.388847	0.309569
12.8799	12.6316	0.390857	0.31125
12.8804	12.6311	0.387656	0.309792
12.8808	12.6306	0.385655	0.308781
12.8813	12.6302	0.387619	0.308288
12.8818	12.6297	0.387996	0.309348
12.8822	12.6292	0.387499	0.31079
12.8827	12.6288	0.386717	0.311458
12.8832	12.6283	0.388076	0.308963
12.8837	12.6278	0.386707	0.307635
12.8841	12.6274	0.387021	0.310469
12.8846	12.6269	0.387589	0.311259
12.8851	12.6264	0.384629	0.308503
12.8856	12.6259	0.386523	0.306321
12.886	12.6254	0.387008	0.307304
12.8865	12.625	0.387201	0.306571
12.887	12.6245	0.386117	0.306302
12.8874	12.624	0.385491	0.305059
12.8879	12.6235	0.386048	0.304345
12.8884	12.6231	0.386527	0.301643
12.8889	12.6226	0.386653	0.301773
12.8893	12.6221	0.386308	0.302834
12.8898	12.6217	0.384177	0.301747
12.8903	12.6212	0.385344	0.300053
12.8907	12.6207	0.386243	0.299995
12.8912	12.6202	0.386166	0.299208
12.8917	12.6197	0.384932	0.301316
12.8922	12.6193	0.383613	0.299458
12.8926	12.6188	0.383513	0.297424
12.8931	12.6184	0.385513	0.297695
12.8936	12.6179	0.384535	0.297923
12.8941	12.6174	0.385314	0.299822
12.8945	12.6169	0.382842	0.299584
12.895	12.6164	0.382677	0.297567
12.8955	12.616	0.385819	0.298308
12.8959	12.6155	0.385044	0.29936
12.8964	12.615	0.384603	0.298643
12.8969	12.6145	0.383944	0.297867
12.8974	12.6141	0.382768	0.296869
12.8978	12.6136	0.38468	0.294704
12.8983	12.6131	0.384047	0.294668
12.8988	12.6127	0.38263	0.295753
