# 1304     AichiSR QXAFS
# Start     : 8.9544
# End       : 9.0544
# Dir       : Forward
# Points    : 300
# ScanTime  : 1.01549
# Date      : 13.04.23 22:29
# Ring Cur. : 25.6[mA]
12.7557	12.7558	0.402612	1.23387
12.7562	12.7553	0.403498	1.22807
12.7566	12.7548	0.402963	1.2269
12.7571	12.7543	0.403458	1.2301
12.7576	12.7539	0.404345	1.22978
12.7581	12.7534	0.403142	1.23121
12.7585	12.7529	0.402652	1.22714
12.759	12.7525	0.403826	1.22607
12.7595	12.752	0.402662	1.22549
12.7599	12.7515	0.403188	1.23144
12.7604	12.7511	0.402032	1.23079
12.7609	12.7506	0.403297	1.22366
12.7614	12.7501	0.403001	1.22311
12.7618	12.7496	0.402569	1.22386
12.7623	12.7492	0.403471	1.22566
12.7628	12.7487	0.401482	1.2255
12.7632	12.7483	0.401291	1.22318
12.7637	12.7478	0.404033	1.22265
12.7642	12.7473	0.400598	1.22181
12.7647	12.7468	0.402963	1.22325
12.7651	12.7464	0.400998	1.22515
12.7656	12.7459	0.401188	1.21798
12.7661	12.7454	0.402631	1.21736
12.7666	12.7449	0.40181	1.22369
12.767	12.7445	0.402457	1.22281
12.7675	12.744	0.400892	1.2191
12.768	12.7435	0.401806	1.2172
12.7684	12.743	0.400233	1.21362
12.7689	12.7426	0.399844	1.21393
12.7694	12.7421	0.40187	1.21876
12.7699	12.7417	0.400457	1.21698
12.7703	12.7412	0.399767	1.21366
12.7708	12.7407	0.402159	1.21119
12.7713	12.7402	0.401191	1.21312
12.7717	12.7398	0.401351	1.21411
12.7722	12.7393	0.39896	1.2087
12.7727	12.7388	0.399747	1.20826
12.7732	12.7384	0.401791	1.20894
12.7736	12.7379	0.400014	1.20626
12.7741	12.7374	0.400334	1.21342
12.7746	12.7369	0.400703	1.20807
12.7751	12.7365	0.399416	1.20291
12.7755	12.736	0.399486	1.20117
12.776	12.7355	0.400131	1.20424
12.7765	12.735	0.399371	1.20116
12.7769	12.7345	0.397613	1.20027
12.7774	12.734	0.398831	1.19433
12.7779	12.7336	0.398533	1.19185
12.7784	12.7331	0.397805	1.18762
12.7788	12.7326	0.399226	1.19133
12.7793	12.7322	0.39818	1.19071
12.7798	12.7317	0.397486	1.18296
12.7802	12.7312	0.399289	1.18267
12.7807	12.7307	0.399664	1.17947
12.7812	12.7303	0.396358	1.17436
12.7817	12.7298	0.396232	1.17068
12.7821	12.7293	0.396088	1.16361
12.7826	12.7289	0.398542	1.15502
12.7831	12.7284	0.395833	1.15013
12.7836	12.7279	0.397412	1.14486
12.784	12.7275	0.395096	1.13492
12.7845	12.727	0.393669	1.11753
12.785	12.7265	0.395015	1.10417
12.7854	12.726	0.392793	1.08284
12.7859	12.7256	0.391193	1.0519
12.7864	12.7251	0.389596	1.01389
12.7869	12.7246	0.389117	0.96748
12.7873	12.7241	0.390763	0.907414
12.7878	12.7236	0.390425	0.845075
12.7883	12.7232	0.393652	0.790765
12.7887	12.7227	0.393293	0.734156
12.7892	12.7223	0.393454	0.685514
12.7897	12.7218	0.395897	0.651777
12.7902	12.7213	0.395672	0.63179
12.7906	12.7208	0.393912	0.618696
12.7911	12.7204	0.393167	0.611964
12.7916	12.7199	0.393093	0.607961
12.7921	12.7194	0.395226	0.611982
12.7925	12.719	0.392944	0.617368
12.793	12.7185	0.394491	0.624036
12.7935	12.7181	0.393186	0.62608
12.7939	12.7176	0.391754	0.623568
12.7944	12.7171	0.396198	0.625872
12.7949	12.7166	0.397776	0.624769
12.7954	12.7162	0.395471	0.609555
12.7958	12.7157	0.393208	0.598243
12.7963	12.7152	0.393797	0.582955
12.7968	12.7147	0.395195	0.571805
12.7972	12.7142	0.39295	0.563901
12.7977	12.7138	0.393292	0.553978
12.7982	12.7133	0.393266	0.543414
12.7987	12.7128	0.391385	0.532234
12.7991	12.7124	0.394418	0.52159
12.7996	12.7119	0.393006	0.511785
12.8001	12.7114	0.39355	0.4987
12.8006	12.7109	0.392165	0.4839
12.801	12.7105	0.393461	0.468656
12.8015	12.71	0.393822	0.451552
12.802	12.7095	0.393132	0.437234
12.8024	12.7091	0.39273	0.422588
12.8029	12.7086	0.39352	0.406147
12.8034	12.7081	0.392288	0.386039
12.8039	12.7077	0.394239	0.370969
12.8043	12.7072	0.393096	0.357725
12.8048	12.7067	0.39335	0.344065
12.8053	12.7062	0.393388	0.330718
12.8057	12.7057	0.39256	0.317654
12.8062	12.7053	0.394241	0.306798
12.8067	12.7048	0.394715	0.298721
12.8072	12.7043	0.394923	0.291546
12.8076	12.7038	0.393596	0.284621
12.8081	12.7033	0.392687	0.279337
12.8086	12.7029	0.394423	0.277346
12.8091	12.7024	0.394661	0.277719
12.8095	12.7019	0.39496	0.278477
12.81	12.7015	0.393927	0.28065
12.8105	12.701	0.394366	0.282898
12.8109	12.7005	0.394968	0.286504
12.8114	12.7	0.394759	0.291844
12.8119	12.6996	0.395024	0.296696
12.8124	12.6991	0.394574	0.300293
12.8128	12.6987	0.394238	0.303515
12.8133	12.6982	0.397201	0.30747
12.8138	12.6977	0.396169	0.31292
12.8142	12.6972	0.395019	0.317725
12.8147	12.6968	0.39467	0.319169
12.8152	12.6963	0.395724	0.319247
12.8157	12.6958	0.396719	0.320128
12.8161	12.6953	0.393521	0.320317
12.8166	12.6949	0.395048	0.320658
12.8171	12.6944	0.39418	0.316795
12.8176	12.6939	0.394685	0.311115
12.818	12.6934	0.397475	0.307968
12.8185	12.693	0.396328	0.305198
12.819	12.6925	0.395021	0.299598
12.8194	12.6921	0.394678	0.292337
12.8199	12.6916	0.395604	0.285502
12.8204	12.6911	0.397032	0.28129
12.8209	12.6906	0.395357	0.277574
12.8213	12.6902	0.394873	0.275079
12.8218	12.6897	0.39581	0.272593
12.8223	12.6892	0.393662	0.270255
12.8227	12.6888	0.396886	0.270561
12.8232	12.6883	0.394673	0.274901
12.8237	12.6878	0.394637	0.278578
12.8242	12.6874	0.395032	0.279758
12.8246	12.6869	0.393931	0.282557
12.8251	12.6864	0.395421	0.287234
12.8256	12.6859	0.394105	0.291536
12.8261	12.6854	0.39484	0.297228
12.8265	12.685	0.394726	0.300035
12.827	12.6845	0.393837	0.303741
12.8275	12.684	0.395166	0.30605
12.8279	12.6835	0.394106	0.310994
12.8284	12.6831	0.392545	0.314812
12.8289	12.6826	0.393513	0.317127
12.8294	12.6821	0.393352	0.318514
12.8298	12.6817	0.395554	0.321253
12.8303	12.6812	0.394539	0.327003
12.8308	12.6807	0.395545	0.330685
12.8312	12.6802	0.397055	0.331829
12.8317	12.6798	0.395605	0.332993
12.8322	12.6793	0.398536	0.336667
12.8327	12.6788	0.398407	0.339278
12.8331	12.6784	0.396749	0.341427
12.8336	12.6779	0.396312	0.342513
12.8341	12.6774	0.397464	0.340515
12.8346	12.6769	0.397706	0.341457
12.835	12.6765	0.396864	0.343061
12.8355	12.676	0.396771	0.344184
12.836	12.6755	0.396678	0.34126
12.8364	12.675	0.395666	0.338628
12.8369	12.6745	0.396508	0.339385
12.8374	12.6741	0.397214	0.33938
12.8379	12.6736	0.395765	0.33871
12.8383	12.6731	0.396838	0.335776
12.8388	12.6727	0.395678	0.334344
12.8393	12.6722	0.39685	0.332702
12.8397	12.6717	0.396843	0.332309
12.8402	12.6713	0.395726	0.331366
12.8407	12.6708	0.396949	0.329266
12.8412	12.6703	0.396115	0.325307
12.8416	12.6698	0.396517	0.323626
12.8421	12.6694	0.39674	0.323398
12.8426	12.6689	0.395071	0.319466
12.8431	12.6685	0.396054	0.317869
12.8435	12.668	0.396838	0.314651
12.844	12.6675	0.397445	0.311563
12.8445	12.667	0.39599	0.309907
12.8449	12.6666	0.395667	0.30721
12.8454	12.6661	0.397683	0.305108
12.8459	12.6656	0.395592	0.300494
12.8464	12.6651	0.395036	0.298839
12.8468	12.6647	0.397646	0.298433
12.8473	12.6642	0.396424	0.296657
12.8478	12.6637	0.395087	0.292212
12.8482	12.6632	0.396768	0.289171
12.8487	12.6628	0.398031	0.288682
12.8492	12.6623	0.397453	0.287829
12.8497	12.6619	0.396068	0.285504
12.8501	12.6614	0.397155	0.283657
12.8506	12.6609	0.394181	0.279021
12.8511	12.6604	0.396695	0.279427
12.8516	12.66	0.397048	0.278639
12.852	12.6595	0.394158	0.277762
12.8525	12.659	0.394134	0.274083
12.853	12.6586	0.394501	0.272921
12.8534	12.6581	0.39553	0.271726
12.8539	12.6576	0.394705	0.272505
12.8544	12.6571	0.394506	0.272608
12.8549	12.6567	0.394429	0.271826
12.8553	12.6562	0.394521	0.272152
12.8558	12.6557	0.395498	0.272396
12.8563	12.6552	0.394762	0.274907
12.8567	12.6547	0.39431	0.276699
12.8572	12.6543	0.393698	0.276809
12.8577	12.6538	0.395009	0.277738
12.8582	12.6533	0.395118	0.280795
12.8586	12.6529	0.395911	0.283271
12.8591	12.6524	0.394553	0.285902
12.8596	12.6519	0.395043	0.286933
12.8601	12.6515	0.395072	0.289322
12.8605	12.651	0.396198	0.291473
12.861	12.6505	0.395163	0.296273
12.8615	12.65	0.394781	0.298662
12.8619	12.6496	0.394163	0.299884
12.8624	12.6491	0.394387	0.300714
12.8629	12.6486	0.395552	0.3025
12.8634	12.6482	0.395866	0.306271
12.8638	12.6477	0.393068	0.30833
12.8643	12.6472	0.391913	0.308563
12.8648	12.6467	0.391716	0.308868
12.8652	12.6462	0.391071	0.310929
12.8657	12.6458	0.391628	0.313195
12.8662	12.6453	0.389489	0.314367
12.8667	12.6448	0.389282	0.314254
12.8671	12.6443	0.39106	0.314896
12.8676	12.6439	0.391816	0.315141
12.8681	12.6434	0.392568	0.317369
12.8686	12.6429	0.392156	0.32047
12.869	12.6425	0.392233	0.320129
12.8695	12.642	0.392966	0.319042
12.87	12.6415	0.393261	0.32164
12.8704	12.6411	0.395746	0.322324
12.8709	12.6406	0.393153	0.321227
12.8714	12.6401	0.39303	0.319418
12.8719	12.6396	0.392867	0.319141
12.8723	12.6392	0.394139	0.319135
12.8728	12.6387	0.393021	0.320119
12.8733	12.6383	0.391938	0.319591
12.8737	12.6378	0.393928	0.317231
12.8742	12.6373	0.392357	0.314786
12.8747	12.6368	0.392375	0.316139
12.8752	12.6364	0.392852	0.315709
12.8756	12.6359	0.392613	0.316074
12.8761	12.6354	0.390981	0.313516
12.8766	12.6349	0.392904	0.311238
12.8771	12.6344	0.393173	0.312925
12.8775	12.634	0.391363	0.312463
12.878	12.6335	0.390075	0.313566
12.8785	12.633	0.390811	0.310482
12.8789	12.6326	0.391151	0.309883
12.8794	12.6321	0.390648	0.311344
12.8799	12.6317	0.39201	0.312638
12.8804	12.6312	0.391585	0.312527
12.8808	12.6307	0.389673	0.309789
12.8813	12.6302	0.391739	0.311149
12.8818	12.6297	0.39032	0.312243
12.8822	12.6293	0.39128	0.312862
12.8827	12.6288	0.389276	0.313773
12.8832	12.6283	0.390393	0.311725
12.8837	12.6279	0.392589	0.310848
12.8841	12.6274	0.390839	0.310893
12.8846	12.6269	0.39083	0.311596
12.8851	12.6264	0.388776	0.311848
12.8856	12.626	0.389405	0.310675
12.886	12.6255	0.391615	0.308876
12.8865	12.625	0.390472	0.309977
12.887	12.6245	0.390893	0.309009
12.8874	12.624	0.39047	0.309368
12.8879	12.6236	0.38869	0.307644
12.8884	12.6231	0.389574	0.306192
12.8889	12.6226	0.390254	0.30493
12.8893	12.6222	0.390149	0.307073
12.8898	12.6217	0.387335	0.304649
12.8903	12.6212	0.388166	0.302969
12.8907	12.6207	0.390997	0.302755
12.8912	12.6203	0.389236	0.303209
12.8917	12.6198	0.390221	0.303106
12.8922	12.6193	0.386255	0.303422
12.8926	12.6189	0.387276	0.301548
12.8931	12.6184	0.390066	0.300616
12.8936	12.6179	0.387745	0.302063
12.8941	12.6174	0.389402	0.302929
12.8945	12.617	0.387907	0.303762
12.895	12.6165	0.388033	0.302357
12.8955	12.616	0.390685	0.29945
12.8959	12.6155	0.38753	0.301578
12.8964	12.6151	0.388188	0.301731
12.8969	12.6146	0.387176	0.301659
12.8974	12.6141	0.388714	0.300267
12.8978	12.6136	0.387088	0.298635
12.8983	12.6132	0.388186	0.298108
12.8988	12.6127	0.388627	0.299296
