# 1304     AichiSR QXAFS
# Start     : 8.9544
# End       : 9.0544
# Dir       : Backward
# Points    : 300
# ScanTime  : 1.01549
# Date      : 13.04.23 22:31
# Ring Cur. : 25.6[mA]
12.7557	12.6118	0.30139	0.230423
12.7562	12.6123	0.30391	0.230675
12.7566	12.6127	0.304263	0.233186
12.7571	12.6132	0.304907	0.236031
12.7576	12.6137	0.303048	0.236905
12.7581	12.6141	0.304618	0.235451
12.7585	12.6146	0.309631	0.237421
12.759	12.6151	0.307263	0.238138
12.7595	12.6156	0.307715	0.239388
12.7599	12.616	0.307377	0.240606
12.7604	12.6165	0.308337	0.239401
12.7609	12.617	0.305762	0.236793
12.7614	12.6175	0.306402	0.237701
12.7618	12.618	0.307266	0.240433
12.7623	12.6184	0.304721	0.239172
12.7628	12.6189	0.303071	0.237901
12.7632	12.6194	0.306315	0.237555
12.7637	12.6198	0.305877	0.23935
12.7642	12.6203	0.306559	0.239656
12.7647	12.6208	0.306496	0.240444
12.7651	12.6213	0.306933	0.239525
12.7656	12.6217	0.306653	0.239696
12.7661	12.6222	0.308963	0.242387
12.7666	12.6227	0.309022	0.242253
12.767	12.6231	0.308231	0.243948
12.7675	12.6236	0.306531	0.240793
12.768	12.6241	0.310057	0.243312
12.7684	12.6246	0.307809	0.243132
12.7689	12.625	0.304975	0.242385
12.7694	12.6255	0.306339	0.244528
12.7699	12.626	0.305661	0.244024
12.7703	12.6265	0.3069	0.243478
12.7708	12.6269	0.305806	0.246018
12.7713	12.6274	0.309501	0.2491
12.7717	12.6279	0.307177	0.247691
12.7722	12.6284	0.30772	0.245579
12.7727	12.6288	0.309733	0.248085
12.7732	12.6293	0.309064	0.24831
12.7736	12.6298	0.308889	0.249122
12.7741	12.6302	0.308608	0.24892
12.7746	12.6307	0.309463	0.246711
12.7751	12.6312	0.309848	0.245649
12.7755	12.6317	0.308777	0.246453
12.776	12.6321	0.308428	0.247562
12.7765	12.6326	0.306952	0.245838
12.7769	12.6331	0.306094	0.244865
12.7774	12.6335	0.311089	0.245153
12.7779	12.634	0.309926	0.24682
12.7784	12.6345	0.308323	0.246841
12.7788	12.6349	0.310779	0.249304
12.7793	12.6354	0.310081	0.247492
12.7798	12.6359	0.310078	0.248239
12.7802	12.6364	0.310694	0.249376
12.7807	12.6368	0.311607	0.251812
12.7812	12.6373	0.307927	0.249752
12.7817	12.6378	0.309408	0.249727
12.7821	12.6383	0.312142	0.252504
12.7826	12.6387	0.309638	0.252039
12.7831	12.6392	0.310225	0.252557
12.7836	12.6397	0.31084	0.254088
12.784	12.6401	0.309619	0.252512
12.7845	12.6406	0.309945	0.251546
12.785	12.6411	0.313154	0.253833
12.7854	12.6416	0.311038	0.256434
12.7859	12.642	0.309235	0.254293
12.7864	12.6425	0.310189	0.253186
12.7869	12.6429	0.313176	0.254705
12.7873	12.6434	0.310984	0.253904
12.7878	12.6439	0.309952	0.253748
12.7883	12.6443	0.311639	0.25324
12.7887	12.6448	0.308598	0.249858
12.7892	12.6453	0.309467	0.247406
12.7897	12.6458	0.310645	0.24889
12.7902	12.6463	0.310067	0.249468
12.7906	12.6467	0.306647	0.24625
12.7911	12.6472	0.30966	0.245143
12.7916	12.6477	0.311968	0.246043
12.7921	12.6482	0.311374	0.244764
12.7925	12.6486	0.310436	0.243489
12.793	12.6491	0.311875	0.242409
12.7935	12.6496	0.312995	0.239769
12.7939	12.6501	0.314111	0.238622
12.7944	12.6505	0.314343	0.238306
12.7949	12.651	0.314807	0.237491
12.7954	12.6515	0.312643	0.233689
12.7958	12.652	0.312419	0.229277
12.7963	12.6524	0.314975	0.229589
12.7968	12.6529	0.315252	0.227847
12.7972	12.6534	0.31243	0.226799
12.7977	12.6538	0.311899	0.223881
12.7982	12.6543	0.313943	0.222234
12.7987	12.6548	0.315733	0.220913
12.7991	12.6553	0.315091	0.220659
12.7996	12.6557	0.315054	0.221455
12.8001	12.6562	0.314796	0.219372
12.8006	12.6567	0.313748	0.21701
12.801	12.6572	0.316413	0.218108
12.8015	12.6577	0.316592	0.217531
12.802	12.6581	0.313844	0.218072
12.8024	12.6586	0.313931	0.21716
12.8029	12.6591	0.313052	0.217199
12.8034	12.6595	0.315269	0.216433
12.8039	12.66	0.315063	0.21887
12.8043	12.6605	0.314272	0.222464
12.8048	12.6609	0.313486	0.222293
12.8053	12.6614	0.313169	0.222506
12.8057	12.6619	0.31833	0.225679
12.8062	12.6623	0.316454	0.227257
12.8067	12.6628	0.315869	0.22983
12.8072	12.6633	0.315948	0.231371
12.8076	12.6637	0.315821	0.231563
12.8081	12.6642	0.317797	0.233117
12.8086	12.6647	0.317012	0.236522
12.8091	12.6652	0.316781	0.238602
12.8095	12.6656	0.314559	0.238823
12.81	12.6661	0.315342	0.240041
12.8105	12.6666	0.318593	0.243679
12.8109	12.6671	0.315583	0.243652
12.8114	12.6675	0.313756	0.247685
12.8119	12.668	0.317018	0.249641
12.8124	12.6685	0.316038	0.249573
12.8128	12.6689	0.316629	0.251118
12.8133	12.6694	0.31888	0.257241
12.8138	12.6699	0.318241	0.258297
12.8142	12.6703	0.31573	0.258188
12.8147	12.6708	0.315814	0.259704
12.8152	12.6713	0.320598	0.26458
12.8157	12.6718	0.318504	0.265014
12.8161	12.6722	0.316276	0.26643
12.8166	12.6727	0.316454	0.266561
12.8171	12.6732	0.31681	0.267345
12.8176	12.6736	0.316764	0.268621
12.818	12.6741	0.316693	0.271295
12.8185	12.6746	0.316717	0.2737
12.819	12.675	0.315358	0.270881
12.8194	12.6755	0.316079	0.27196
12.8199	12.676	0.318981	0.272944
12.8204	12.6765	0.318416	0.274893
12.8209	12.677	0.316222	0.275167
12.8213	12.6775	0.319359	0.275604
12.8218	12.6779	0.316554	0.272989
12.8223	12.6784	0.317284	0.271791
12.8227	12.6789	0.318031	0.274851
12.8232	12.6793	0.318219	0.274728
12.8237	12.6798	0.31574	0.271039
12.8242	12.6803	0.316912	0.268662
12.8246	12.6807	0.319771	0.268465
12.8251	12.6812	0.318784	0.266773
12.8256	12.6817	0.315775	0.263785
12.8261	12.6822	0.3178	0.260975
12.8265	12.6826	0.317354	0.257509
12.827	12.6831	0.317089	0.255026
12.8275	12.6836	0.316279	0.253384
12.8279	12.684	0.31684	0.252577
12.8284	12.6845	0.316992	0.2498
12.8289	12.685	0.31541	0.244272
12.8294	12.6855	0.319319	0.243992
12.8298	12.686	0.317757	0.241012
12.8303	12.6864	0.317332	0.23832
12.8308	12.6869	0.316961	0.234111
12.8312	12.6874	0.317959	0.229386
12.8317	12.6879	0.317884	0.225891
12.8322	12.6883	0.318256	0.224448
12.8327	12.6888	0.317383	0.222083
12.8331	12.6893	0.317311	0.2199
12.8336	12.6897	0.317339	0.216979
12.8341	12.6902	0.320994	0.219407
12.8346	12.6907	0.317167	0.220909
12.835	12.6911	0.316242	0.223781
12.8355	12.6916	0.319891	0.227842
12.836	12.6921	0.318318	0.229337
12.8364	12.6925	0.318028	0.232842
12.8369	12.693	0.319272	0.23981
12.8374	12.6935	0.318448	0.245382
12.8379	12.6939	0.316418	0.245444
12.8383	12.6944	0.317127	0.249884
12.8388	12.6949	0.318425	0.253782
12.8393	12.6954	0.317808	0.256797
12.8397	12.6958	0.315474	0.257672
12.8402	12.6963	0.31803	0.258025
12.8407	12.6968	0.317264	0.257137
12.8412	12.6973	0.317305	0.256817
12.8416	12.6978	0.31835	0.257224
12.8421	12.6982	0.316777	0.254433
12.8426	12.6987	0.315294	0.248874
12.8431	12.6991	0.318609	0.246906
12.8435	12.6996	0.322764	0.246685
12.844	12.7001	0.318797	0.243153
12.8445	12.7005	0.315768	0.236222
12.8449	12.701	0.318458	0.232238
12.8454	12.7015	0.31782	0.229165
12.8459	12.702	0.315294	0.225287
12.8464	12.7024	0.318517	0.225737
12.8468	12.7029	0.316462	0.224627
12.8473	12.7034	0.314932	0.222273
12.8478	12.7038	0.317748	0.223852
12.8482	12.7043	0.318413	0.229684
12.8487	12.7048	0.317475	0.233234
12.8492	12.7053	0.317146	0.239475
12.8497	12.7058	0.319488	0.247285
12.8501	12.7063	0.319431	0.254398
12.8506	12.7067	0.318838	0.264079
12.8511	12.7072	0.320273	0.276633
12.8516	12.7077	0.317903	0.286712
12.852	12.7082	0.317949	0.29634
12.8525	12.7086	0.319753	0.311698
12.853	12.7091	0.319557	0.324917
12.8534	12.7096	0.31961	0.33834
12.8539	12.71	0.31705	0.353434
12.8544	12.7105	0.319746	0.366364
12.8549	12.711	0.321661	0.378607
12.8553	12.7115	0.320732	0.390745
12.8558	12.7119	0.320875	0.405035
12.8563	12.7124	0.320768	0.415823
12.8567	12.7129	0.321372	0.424709
12.8572	12.7133	0.320879	0.432681
12.8577	12.7138	0.322256	0.444039
12.8582	12.7143	0.322059	0.451687
12.8586	12.7147	0.321822	0.459672
12.8591	12.7152	0.319739	0.464655
12.8596	12.7157	0.322197	0.475115
12.8601	12.7162	0.32138	0.484186
12.8605	12.7167	0.322159	0.494307
12.861	12.7171	0.319996	0.501561
12.8615	12.7176	0.319313	0.505535
12.8619	12.7181	0.323225	0.513287
12.8624	12.7185	0.323143	0.514746
12.8629	12.719	0.320463	0.510132
12.8634	12.7195	0.321015	0.509289
12.8638	12.7199	0.32235	0.50336
12.8643	12.7204	0.322961	0.498336
12.8648	12.7209	0.3209	0.497369
12.8652	12.7214	0.321553	0.502031
12.8657	12.7218	0.320796	0.509827
12.8662	12.7223	0.319117	0.518709
12.8667	12.7227	0.321506	0.542951
12.8671	12.7232	0.321536	0.580694
12.8676	12.7237	0.319551	0.621704
12.8681	12.7241	0.317613	0.673408
12.8686	12.7246	0.318111	0.727201
12.869	12.7251	0.318949	0.77162
12.8695	12.7256	0.317823	0.813829
12.87	12.7261	0.319795	0.852462
12.8704	12.7265	0.320408	0.879277
12.8709	12.727	0.319118	0.891307
12.8714	12.7275	0.322735	0.910976
12.8719	12.728	0.323922	0.92323
12.8723	12.7284	0.321465	0.926662
12.8728	12.7289	0.320751	0.935925
12.8733	12.7294	0.321632	0.941753
12.8737	12.7298	0.324098	0.946285
12.8742	12.7303	0.322327	0.951412
12.8747	12.7308	0.324538	0.959453
12.8752	12.7313	0.322566	0.959824
12.8756	12.7317	0.3209	0.956583
12.8761	12.7322	0.324941	0.962727
12.8766	12.7327	0.325746	0.967609
12.8771	12.7331	0.324562	0.97225
12.8775	12.7336	0.323188	0.972178
12.878	12.7341	0.323477	0.970733
12.8785	12.7346	0.326258	0.974692
12.8789	12.735	0.326811	0.976938
12.8794	12.7355	0.32504	0.980474
12.8799	12.736	0.327233	0.984079
12.8804	12.7365	0.324328	0.978886
12.8808	12.737	0.325439	0.979117
12.8813	12.7374	0.327043	0.983663
12.8818	12.7379	0.326	0.985581
12.8822	12.7384	0.324324	0.985086
12.8827	12.7389	0.325077	0.98613
12.8832	12.7393	0.328711	0.990471
12.8837	12.7398	0.326232	0.986546
12.8841	12.7403	0.327281	0.993111
12.8846	12.7407	0.326559	0.994599
12.8851	12.7412	0.326943	0.992275
12.8856	12.7417	0.328041	0.992041
12.886	12.7422	0.32742	0.995404
12.8865	12.7426	0.32521	0.995803
12.887	12.7431	0.326426	0.997201
12.8874	12.7435	0.327133	0.99525
12.8879	12.744	0.32827	0.99562
12.8884	12.7445	0.327247	0.993226
12.8889	12.745	0.328975	1.00302
12.8893	12.7454	0.330842	1.00189
12.8898	12.7459	0.327647	0.996535
12.8903	12.7464	0.330846	0.999571
12.8907	12.7469	0.331264	1.00799
12.8912	12.7474	0.331951	1.00484
12.8917	12.7478	0.329063	1.00306
12.8922	12.7483	0.332934	1.01094
12.8926	12.7488	0.333007	1.00594
12.8931	12.7492	0.330292	1.00478
12.8936	12.7497	0.331156	1.00818
12.8941	12.7502	0.329978	1.00681
12.8945	12.7506	0.328864	1.00264
12.895	12.7511	0.33293	1.00707
12.8955	12.7516	0.3319	1.00934
12.8959	12.752	0.326705	1.00331
12.8964	12.7525	0.330562	1.00662
12.8969	12.753	0.332347	1.00926
12.8974	12.7534	0.332134	1.00402
12.8978	12.7539	0.330578	1.00688
12.8983	12.7544	0.332351	1.01572
12.8988	12.7548	0.332187	1.01364
