# 1304     AichiSR QXAFS
# Start     : 8.9544
# End       : 9.0544
# Dir       : Backward
# Points    : 300
# ScanTime  : 1.01549
# Date      : 13.04.23 22:26
# Ring Cur. : 25.5[mA]
12.7557	12.6118	0.300363	0.228801
12.7562	12.6122	0.300966	0.231339
12.7566	12.6127	0.30229	0.232916
12.7571	12.6132	0.301121	0.234053
12.7576	12.6136	0.302207	0.231927
12.7581	12.6141	0.30348	0.232998
12.7585	12.6146	0.30388	0.235011
12.759	12.615	0.304293	0.236043
12.7595	12.6155	0.303224	0.237619
12.7599	12.616	0.303136	0.235444
12.7604	12.6165	0.301767	0.233121
12.7609	12.6169	0.301677	0.234112
12.7614	12.6174	0.30311	0.237707
12.7618	12.6179	0.303908	0.236718
12.7623	12.6184	0.300273	0.233579
12.7628	12.6188	0.303153	0.233788
12.7632	12.6193	0.303518	0.237645
12.7637	12.6198	0.304755	0.237942
12.7642	12.6202	0.3021	0.237406
12.7647	12.6207	0.304029	0.236874
12.7651	12.6212	0.304547	0.236457
12.7656	12.6217	0.301423	0.236026
12.7661	12.6221	0.305365	0.239051
12.7666	12.6226	0.304556	0.238668
12.767	12.6231	0.303918	0.238029
12.7675	12.6235	0.30316	0.236473
12.768	12.624	0.303325	0.239374
12.7684	12.6245	0.303896	0.24087
12.7689	12.625	0.302804	0.242201
12.7694	12.6255	0.303516	0.239843
12.7699	12.6259	0.303192	0.239618
12.7703	12.6264	0.304772	0.243094
12.7708	12.6269	0.305223	0.243892
12.7713	12.6274	0.305072	0.245492
12.7717	12.6279	0.303105	0.24185
12.7722	12.6283	0.304668	0.243003
12.7727	12.6288	0.304104	0.245421
12.7732	12.6293	0.305597	0.244929
12.7736	12.6297	0.304295	0.245004
12.7741	12.6302	0.30449	0.243486
12.7746	12.6307	0.304638	0.242332
12.7751	12.6311	0.304792	0.242467
12.7755	12.6316	0.306172	0.245402
12.776	12.6321	0.305534	0.245996
12.7765	12.6325	0.304716	0.242902
12.7769	12.633	0.306966	0.242861
12.7774	12.6335	0.306664	0.243843
12.7779	12.6339	0.305845	0.245569
12.7784	12.6344	0.305548	0.244888
12.7788	12.6349	0.306041	0.243881
12.7793	12.6354	0.30636	0.243596
12.7798	12.6358	0.306507	0.244783
12.7802	12.6363	0.306698	0.248639
12.7807	12.6368	0.305432	0.247758
12.7812	12.6373	0.303262	0.243626
12.7817	12.6377	0.306951	0.247365
12.7821	12.6382	0.306328	0.247766
12.7826	12.6387	0.306959	0.249722
12.7831	12.6391	0.306741	0.249956
12.7836	12.6396	0.308065	0.249437
12.784	12.6401	0.307157	0.248467
12.7845	12.6405	0.306165	0.249661
12.785	12.641	0.308502	0.252391
12.7854	12.6415	0.307266	0.253948
12.7859	12.642	0.305255	0.248398
12.7864	12.6424	0.307379	0.249713
12.7869	12.6429	0.306978	0.250614
12.7873	12.6433	0.306225	0.250992
12.7878	12.6438	0.304874	0.249598
12.7883	12.6443	0.304358	0.247094
12.7887	12.6448	0.30553	0.246542
12.7892	12.6452	0.303202	0.245119
12.7897	12.6457	0.305189	0.246676
12.7902	12.6462	0.305771	0.246097
12.7906	12.6467	0.30454	0.241792
12.7911	12.6472	0.307164	0.24264
12.7916	12.6476	0.306828	0.24339
12.7921	12.6481	0.307423	0.243302
12.7925	12.6486	0.305045	0.239889
12.793	12.6491	0.308807	0.238348
12.7935	12.6495	0.309737	0.23584
12.7939	12.65	0.305542	0.233678
12.7944	12.6505	0.308595	0.234857
12.7949	12.651	0.309769	0.233846
12.7954	12.6514	0.307396	0.228443
12.7958	12.6519	0.31006	0.227549
12.7963	12.6524	0.311263	0.227229
12.7968	12.6528	0.309994	0.226175
12.7972	12.6533	0.30956	0.222893
12.7977	12.6538	0.309965	0.221405
12.7982	12.6542	0.310258	0.219892
12.7987	12.6547	0.309391	0.21908
12.7991	12.6552	0.309422	0.218221
12.7996	12.6557	0.31036	0.215986
12.8001	12.6562	0.310027	0.214085
12.8006	12.6566	0.310655	0.212015
12.801	12.6571	0.309992	0.214236
12.8015	12.6576	0.308463	0.213601
12.802	12.6581	0.310742	0.215076
12.8024	12.6585	0.309629	0.212547
12.8029	12.659	0.310135	0.213484
12.8034	12.6595	0.309589	0.214139
12.8039	12.6599	0.309823	0.21849
12.8043	12.6604	0.31231	0.218831
12.8048	12.6609	0.309296	0.217602
12.8053	12.6614	0.312618	0.218078
12.8057	12.6618	0.311231	0.220644
12.8062	12.6623	0.31034	0.224937
12.8067	12.6628	0.311107	0.225685
12.8072	12.6632	0.310222	0.224679
12.8076	12.6637	0.312839	0.226625
12.8081	12.6641	0.309762	0.22953
12.8086	12.6646	0.310572	0.232311
12.8091	12.6651	0.31126	0.233512
12.8095	12.6656	0.309603	0.232866
12.81	12.6661	0.310619	0.235339
12.8105	12.6665	0.311319	0.238131
12.8109	12.667	0.310063	0.241125
12.8114	12.6675	0.310231	0.242139
12.8119	12.668	0.311896	0.243834
12.8124	12.6684	0.311886	0.244809
12.8128	12.6689	0.30956	0.246425
12.8133	12.6693	0.31326	0.25305
12.8138	12.6698	0.312582	0.251764
12.8142	12.6703	0.309005	0.252453
12.8147	12.6708	0.311589	0.255613
12.8152	12.6712	0.310132	0.258924
12.8157	12.6717	0.310216	0.258541
12.8161	12.6722	0.309657	0.260028
12.8166	12.6726	0.313407	0.263166
12.8171	12.6731	0.315641	0.264182
12.8176	12.6736	0.313157	0.266523
12.818	12.674	0.312005	0.267939
12.8185	12.6745	0.313347	0.268418
12.819	12.675	0.311209	0.266535
12.8194	12.6755	0.312372	0.266287
12.8199	12.676	0.312363	0.270428
12.8204	12.6764	0.31195	0.27099
12.8209	12.6769	0.311545	0.270037
12.8213	12.6774	0.311463	0.268654
12.8218	12.6779	0.313209	0.269258
12.8223	12.6784	0.310352	0.268878
12.8227	12.6788	0.310793	0.269898
12.8232	12.6793	0.313416	0.268662
12.8237	12.6797	0.311277	0.265151
12.8242	12.6802	0.313465	0.265043
12.8246	12.6807	0.311767	0.263586
12.8251	12.6812	0.312198	0.2627
12.8256	12.6817	0.312656	0.259874
12.8261	12.6821	0.315293	0.25757
12.8265	12.6826	0.312641	0.252977
12.827	12.683	0.309968	0.251631
12.8275	12.6835	0.311464	0.250954
12.8279	12.684	0.31247	0.248019
12.8284	12.6845	0.31136	0.243216
12.8289	12.6849	0.313384	0.241911
12.8294	12.6854	0.313886	0.240657
12.8298	12.6859	0.311764	0.23818
12.8303	12.6864	0.314679	0.234732
12.8308	12.6869	0.314819	0.23158
12.8312	12.6873	0.315305	0.229082
12.8317	12.6878	0.315202	0.226571
12.8322	12.6883	0.315728	0.224265
12.8327	12.6888	0.316027	0.219808
12.8331	12.6892	0.316426	0.218351
12.8336	12.6897	0.317011	0.217726
12.8341	12.6901	0.315737	0.217982
12.8346	12.6906	0.314657	0.218546
12.835	12.6911	0.316058	0.220426
12.8355	12.6916	0.317212	0.222949
12.836	12.692	0.317301	0.227394
12.8364	12.6925	0.316893	0.232589
12.8369	12.693	0.315685	0.238286
12.8374	12.6934	0.31715	0.241644
12.8379	12.6939	0.31904	0.246301
12.8383	12.6944	0.317537	0.250403
12.8388	12.6948	0.319287	0.254538
12.8393	12.6953	0.316812	0.255888
12.8397	12.6958	0.315856	0.256411
12.8402	12.6963	0.319356	0.257863
12.8407	12.6967	0.317934	0.257207
12.8412	12.6972	0.315266	0.256118
12.8416	12.6977	0.316409	0.254912
12.8421	12.6982	0.317442	0.253765
12.8426	12.6986	0.316385	0.248352
12.8431	12.6991	0.316748	0.246897
12.8435	12.6996	0.318496	0.246125
12.844	12.7	0.317166	0.240779
12.8445	12.7005	0.3161	0.235825
12.8449	12.701	0.320957	0.233394
12.8454	12.7015	0.320503	0.230496
12.8459	12.7019	0.316288	0.227216
12.8464	12.7024	0.317988	0.226708
12.8468	12.7028	0.319914	0.224543
12.8473	12.7033	0.31809	0.222728
12.8478	12.7038	0.318908	0.224702
12.8482	12.7043	0.321386	0.229551
12.8487	12.7047	0.317407	0.233003
12.8492	12.7052	0.316528	0.237407
12.8497	12.7057	0.319883	0.24721
12.8501	12.7062	0.321123	0.256216
12.8506	12.7067	0.32007	0.264799
12.8511	12.7072	0.320061	0.275862
12.8516	12.7076	0.321422	0.286759
12.852	12.7081	0.321859	0.297593
12.8525	12.7086	0.322443	0.311757
12.853	12.709	0.323274	0.327858
12.8534	12.7095	0.320289	0.338798
12.8539	12.71	0.319561	0.351517
12.8544	12.7104	0.321822	0.366044
12.8549	12.7109	0.323077	0.378473
12.8553	12.7114	0.321114	0.390167
12.8558	12.7119	0.321837	0.404702
12.8563	12.7123	0.320451	0.413277
12.8567	12.7128	0.321799	0.422786
12.8572	12.7133	0.322675	0.433785
12.8577	12.7137	0.324036	0.443753
12.8582	12.7142	0.321073	0.450306
12.8586	12.7147	0.321615	0.457826
12.8591	12.7152	0.32413	0.467005
12.8596	12.7157	0.323969	0.477423
12.8601	12.7161	0.320966	0.484107
12.8605	12.7166	0.320511	0.493283
12.861	12.7171	0.322518	0.501161
12.8615	12.7176	0.322202	0.505113
12.8619	12.718	0.323303	0.512186
12.8624	12.7185	0.324182	0.514567
12.8629	12.719	0.320786	0.51162
12.8634	12.7194	0.320575	0.506768
12.8638	12.7199	0.324079	0.504796
12.8643	12.7203	0.32336	0.501028
12.8648	12.7208	0.320382	0.49767
12.8652	12.7213	0.322101	0.502888
12.8657	12.7218	0.320973	0.506267
12.8662	12.7222	0.321548	0.517981
12.8667	12.7227	0.320926	0.544818
12.8671	12.7232	0.32119	0.576444
12.8676	12.7236	0.319097	0.613861
12.8681	12.7241	0.317679	0.662407
12.8686	12.7246	0.318757	0.717222
12.869	12.725	0.31762	0.765392
12.8695	12.7255	0.317733	0.805201
12.87	12.726	0.317979	0.845028
12.8704	12.7265	0.320969	0.871631
12.8709	12.7269	0.322478	0.888492
12.8714	12.7274	0.321202	0.906835
12.8719	12.7279	0.322819	0.919475
12.8723	12.7284	0.322219	0.92765
12.8728	12.7288	0.321243	0.929073
12.8733	12.7293	0.324317	0.938826
12.8737	12.7298	0.32314	0.944938
12.8742	12.7302	0.321663	0.946531
12.8747	12.7307	0.322025	0.952631
12.8752	12.7312	0.323848	0.95524
12.8756	12.7317	0.322622	0.955508
12.8761	12.7321	0.323681	0.961057
12.8766	12.7326	0.324084	0.966464
12.8771	12.7331	0.321703	0.9661
12.8775	12.7336	0.322554	0.963646
12.878	12.734	0.325227	0.972282
12.8785	12.7345	0.324381	0.972197
12.8789	12.735	0.322842	0.969396
12.8794	12.7355	0.323932	0.97735
12.8799	12.736	0.324617	0.978162
12.8804	12.7364	0.325319	0.974182
12.8808	12.7369	0.324307	0.975337
12.8813	12.7374	0.325418	0.980231
12.8818	12.7379	0.322417	0.978025
12.8822	12.7383	0.323748	0.975719
12.8827	12.7388	0.327137	0.983223
12.8832	12.7393	0.326053	0.981337
12.8837	12.7397	0.324443	0.983112
12.8841	12.7402	0.324192	0.986696
12.8846	12.7407	0.325107	0.985141
12.8851	12.7412	0.326638	0.98415
12.8856	12.7416	0.327813	0.987361
12.886	12.7421	0.325497	0.990091
12.8865	12.7426	0.324053	0.989251
12.887	12.743	0.325312	0.987597
12.8874	12.7435	0.327944	0.990932
12.8879	12.744	0.327334	0.989131
12.8884	12.7444	0.32499	0.988284
12.8889	12.7449	0.326453	0.99348
12.8893	12.7454	0.326326	0.990636
12.8898	12.7459	0.326512	0.989886
12.8903	12.7464	0.326483	0.99148
12.8907	12.7468	0.326629	0.996932
12.8912	12.7473	0.325748	0.993635
12.8917	12.7478	0.3268	0.994125
12.8922	12.7483	0.331057	1.00205
12.8926	12.7487	0.327971	1.00029
12.8931	12.7492	0.32729	0.993897
12.8936	12.7496	0.327484	1.00186
12.8941	12.7501	0.326639	0.996683
12.8945	12.7506	0.328271	0.994256
12.895	12.7511	0.329273	0.996982
12.8955	12.7515	0.325583	0.995354
12.8959	12.752	0.325213	0.993766
12.8964	12.7525	0.325231	0.993551
12.8969	12.7529	0.329291	0.998999
12.8974	12.7534	0.326314	0.99561
12.8978	12.7538	0.324306	0.99265
12.8983	12.7543	0.327698	1.00081
12.8988	12.7548	0.327123	0.998434
