# 1304     AichiSR QXAFS
# Start     : 8.9544
# End       : 9.0544
# Dir       : Forward
# Points    : 300
# ScanTime  : 1.01549
# Date      : 13.04.23 22:32
# Ring Cur. : 25.7[mA]
12.7557	12.7558	0.408853	1.23965
12.7562	12.7553	0.406919	1.24333
12.7566	12.7548	0.406247	1.24218
12.7571	12.7544	0.406834	1.23891
12.7576	12.7539	0.405957	1.23706
12.7581	12.7534	0.40719	1.23504
12.7585	12.7529	0.407115	1.23834
12.759	12.7525	0.404719	1.23833
12.7595	12.752	0.405676	1.23803
12.7599	12.7516	0.405419	1.23562
12.7604	12.7511	0.40754	1.23524
12.7609	12.7506	0.407057	1.23893
12.7614	12.7501	0.40562	1.23777
12.7618	12.7497	0.406964	1.23422
12.7623	12.7492	0.405917	1.23497
12.7628	12.7488	0.406099	1.23486
12.7632	12.7483	0.406234	1.2377
12.7637	12.7478	0.403407	1.23701
12.7642	12.7473	0.405014	1.23385
12.7647	12.7469	0.406447	1.22987
12.7651	12.7464	0.406537	1.23138
12.7656	12.7459	0.405902	1.2334
12.7661	12.7454	0.406473	1.23627
12.7666	12.745	0.405211	1.23307
12.767	12.7445	0.406404	1.23483
12.7675	12.744	0.40651	1.23153
12.768	12.7435	0.405241	1.23413
12.7684	12.7431	0.40346	1.23134
12.7689	12.7426	0.404075	1.22483
12.7694	12.7421	0.405134	1.22538
12.7699	12.7417	0.406012	1.2269
12.7703	12.7412	0.405536	1.22925
12.7708	12.7407	0.404957	1.22601
12.7713	12.7402	0.404912	1.22259
12.7717	12.7398	0.405556	1.22401
12.7722	12.7393	0.404693	1.22419
12.7727	12.7389	0.406165	1.22684
12.7732	12.7384	0.403831	1.22383
12.7736	12.7379	0.404382	1.22199
12.7741	12.7374	0.405221	1.22043
12.7746	12.737	0.404431	1.22066
12.7751	12.7365	0.404098	1.22111
12.7755	12.736	0.40268	1.22133
12.776	12.7355	0.405252	1.21891
12.7765	12.735	0.403694	1.21327
12.7769	12.7346	0.404539	1.21322
12.7774	12.7341	0.404322	1.21585
12.7779	12.7336	0.403015	1.21219
12.7784	12.7331	0.403192	1.20869
12.7788	12.7327	0.403854	1.20507
12.7793	12.7322	0.404781	1.20189
12.7798	12.7317	0.403949	1.2019
12.7802	12.7313	0.40244	1.19979
12.7807	12.7308	0.404373	1.19327
12.7812	12.7303	0.403946	1.19062
12.7817	12.7298	0.404187	1.18755
12.7821	12.7294	0.403688	1.18469
12.7826	12.7289	0.402819	1.18214
12.7831	12.7284	0.401242	1.16913
12.7836	12.728	0.403343	1.16125
12.784	12.7275	0.401208	1.15679
12.7845	12.727	0.401838	1.14234
12.785	12.7265	0.400211	1.12989
12.7854	12.7261	0.399942	1.10691
12.7859	12.7256	0.397655	1.07954
12.7864	12.7251	0.397379	1.04149
12.7869	12.7246	0.396089	1.00325
12.7873	12.7242	0.394786	0.948212
12.7878	12.7237	0.397016	0.882897
12.7883	12.7232	0.399567	0.81979
12.7887	12.7227	0.400369	0.759601
12.7892	12.7223	0.400876	0.710518
12.7897	12.7218	0.400064	0.675035
12.7902	12.7214	0.40194	0.645018
12.7906	12.7209	0.402839	0.629517
12.7911	12.7204	0.402545	0.622088
12.7916	12.7199	0.402613	0.623305
12.7921	12.7195	0.399863	0.622151
12.7925	12.719	0.401115	0.627218
12.793	12.7186	0.401647	0.632787
12.7935	12.7181	0.402437	0.636944
12.7939	12.7176	0.40089	0.639888
12.7944	12.7171	0.399861	0.637152
12.7949	12.7167	0.401373	0.631026
12.7954	12.7162	0.402604	0.619937
12.7958	12.7157	0.401319	0.610637
12.7963	12.7152	0.400767	0.600772
12.7968	12.7147	0.400808	0.58963
12.7972	12.7143	0.400908	0.576779
12.7977	12.7138	0.402152	0.567794
12.7982	12.7133	0.400795	0.558517
12.7987	12.7128	0.400466	0.547507
12.7991	12.7124	0.399414	0.537371
12.7996	12.7119	0.399733	0.522122
12.8001	12.7115	0.40234	0.510905
12.8006	12.711	0.401544	0.498491
12.801	12.7105	0.400757	0.483571
12.8015	12.71	0.399939	0.467082
12.802	12.7096	0.397746	0.449508
12.8024	12.7091	0.399652	0.433468
12.8029	12.7086	0.400201	0.417361
12.8034	12.7082	0.398747	0.401308
12.8039	12.7077	0.399761	0.383991
12.8043	12.7072	0.399473	0.368874
12.8048	12.7067	0.401137	0.351324
12.8053	12.7062	0.399054	0.339109
12.8057	12.7058	0.399226	0.32796
12.8062	12.7053	0.398209	0.314935
12.8067	12.7048	0.39847	0.302753
12.8072	12.7043	0.400351	0.294769
12.8076	12.7038	0.399479	0.290941
12.8081	12.7034	0.39938	0.285404
12.8086	12.7029	0.399045	0.281279
12.8091	12.7024	0.398486	0.278892
12.8095	12.702	0.400285	0.2797
12.81	12.7015	0.398957	0.282061
12.8105	12.701	0.399316	0.286171
12.8109	12.7005	0.398135	0.287841
12.8114	12.7001	0.39884	0.291697
12.8119	12.6996	0.399949	0.296219
12.8124	12.6992	0.398945	0.302205
12.8128	12.6987	0.398148	0.308021
12.8133	12.6982	0.398934	0.310826
12.8138	12.6978	0.397093	0.313496
12.8142	12.6973	0.398185	0.317577
12.8147	12.6968	0.396554	0.320331
12.8152	12.6963	0.397088	0.322657
12.8157	12.6959	0.397318	0.322719
12.8161	12.6954	0.397092	0.320912
12.8166	12.6949	0.398167	0.319254
12.8171	12.6944	0.396348	0.318706
12.8176	12.6939	0.397043	0.316934
12.818	12.6935	0.396474	0.312387
12.8185	12.693	0.395868	0.305296
12.819	12.6925	0.396857	0.299775
12.8194	12.6921	0.396198	0.294965
12.8199	12.6916	0.395108	0.290018
12.8204	12.6912	0.39524	0.284177
12.8209	12.6907	0.395248	0.276794
12.8213	12.6902	0.397468	0.273895
12.8218	12.6897	0.395549	0.274766
12.8223	12.6893	0.395224	0.272982
12.8227	12.6888	0.395106	0.271352
12.8232	12.6883	0.39411	0.27206
12.8237	12.6879	0.396566	0.274273
12.8242	12.6874	0.394558	0.279025
12.8246	12.6869	0.393809	0.282933
12.8251	12.6864	0.394473	0.286608
12.8256	12.686	0.393156	0.28816
12.8261	12.6855	0.392963	0.294057
12.8265	12.685	0.393441	0.300314
12.827	12.6845	0.392532	0.3036
12.8275	12.684	0.391676	0.305061
12.8279	12.6836	0.39277	0.307179
12.8284	12.6831	0.392415	0.309195
12.8289	12.6826	0.391558	0.314808
12.8294	12.6822	0.39342	0.31713
12.8298	12.6817	0.392706	0.320237
12.8303	12.6812	0.392377	0.322233
12.8308	12.6807	0.397366	0.328576
12.8312	12.6803	0.397974	0.333843
12.8317	12.6798	0.392889	0.332669
12.8322	12.6793	0.394066	0.335171
12.8327	12.6789	0.393231	0.335761
12.8331	12.6784	0.395299	0.337063
12.8336	12.6779	0.393933	0.339406
12.8341	12.6775	0.392725	0.340908
12.8346	12.677	0.392193	0.338874
12.835	12.6765	0.392287	0.338256
12.8355	12.676	0.393897	0.339298
12.836	12.6755	0.394291	0.339518
12.8364	12.675	0.392212	0.338728
12.8369	12.6746	0.392896	0.337599
12.8374	12.6741	0.394016	0.335398
12.8379	12.6736	0.393765	0.334011
12.8383	12.6732	0.392556	0.334844
12.8388	12.6727	0.392327	0.333286
12.8393	12.6722	0.392756	0.331842
12.8397	12.6718	0.393613	0.32919
12.8402	12.6713	0.39366	0.326936
12.8407	12.6708	0.393732	0.326671
12.8412	12.6703	0.392846	0.325965
12.8416	12.6699	0.393611	0.322203
12.8421	12.6694	0.394202	0.320354
12.8426	12.6689	0.395133	0.317052
12.8431	12.6685	0.394728	0.315872
12.8435	12.668	0.393921	0.313525
12.844	12.6676	0.394668	0.31038
12.8445	12.6671	0.39213	0.306722
12.8449	12.6666	0.394784	0.305539
12.8454	12.6661	0.394897	0.305847
12.8459	12.6656	0.394011	0.30206
12.8464	12.6652	0.39406	0.298768
12.8468	12.6647	0.39519	0.295878
12.8473	12.6642	0.393716	0.294416
12.8478	12.6637	0.395874	0.293116
12.8482	12.6633	0.394508	0.291137
12.8487	12.6628	0.394819	0.288602
12.8492	12.6623	0.394727	0.285701
12.8497	12.6619	0.393963	0.283931
12.8501	12.6614	0.396441	0.283818
12.8506	12.6609	0.394181	0.281444
12.8511	12.6605	0.394354	0.278563
12.8516	12.66	0.395835	0.27664
12.852	12.6595	0.395459	0.27572
12.8525	12.6591	0.394157	0.275533
12.853	12.6586	0.392928	0.272725
12.8534	12.6581	0.394718	0.271682
12.8539	12.6577	0.394782	0.270957
12.8544	12.6572	0.3956	0.270858
12.8549	12.6567	0.394324	0.273825
12.8553	12.6562	0.394995	0.272926
12.8558	12.6557	0.394599	0.272136
12.8563	12.6553	0.395957	0.27265
12.8567	12.6548	0.395954	0.274637
12.8572	12.6543	0.39591	0.277644
12.8577	12.6538	0.394493	0.279453
12.8582	12.6534	0.395159	0.279605
12.8586	12.6529	0.396398	0.281566
12.8591	12.6524	0.396838	0.284652
12.8596	12.652	0.395936	0.288639
12.8601	12.6515	0.396126	0.289953
12.8605	12.651	0.396789	0.290455
12.861	12.6505	0.396805	0.293897
12.8615	12.65	0.396926	0.297144
12.8619	12.6496	0.39767	0.300708
12.8624	12.6491	0.394219	0.301494
12.8629	12.6487	0.395008	0.304015
12.8634	12.6482	0.395494	0.304764
12.8638	12.6477	0.395248	0.307707
12.8643	12.6472	0.395778	0.310549
12.8648	12.6467	0.392639	0.311213
12.8652	12.6463	0.393717	0.311244
12.8657	12.6458	0.392211	0.312212
12.8662	12.6453	0.392887	0.314443
12.8667	12.6448	0.392805	0.31612
12.8671	12.6443	0.391425	0.317252
12.8676	12.6439	0.393237	0.318549
12.8681	12.6434	0.394114	0.318656
12.8686	12.6429	0.395673	0.320433
12.869	12.6425	0.395187	0.323144
12.8695	12.642	0.393746	0.322892
12.87	12.6416	0.395355	0.322608
12.8704	12.6411	0.396162	0.321667
12.8709	12.6406	0.396065	0.32275
12.8714	12.6401	0.396246	0.32452
12.8719	12.6397	0.396674	0.322936
12.8723	12.6392	0.395308	0.322317
12.8728	12.6387	0.397188	0.320818
12.8733	12.6383	0.395607	0.320506
12.8737	12.6378	0.396057	0.322982
12.8742	12.6373	0.395712	0.319203
12.8747	12.6369	0.395913	0.318385
12.8752	12.6364	0.397907	0.317143
12.8756	12.6359	0.396412	0.317099
12.8761	12.6354	0.396073	0.318039
12.8766	12.6349	0.394445	0.316914
12.8771	12.6345	0.39557	0.315452
12.8775	12.634	0.396053	0.315152
12.878	12.6335	0.394998	0.314432
12.8785	12.6331	0.396469	0.315583
12.8789	12.6326	0.394488	0.315404
12.8794	12.6321	0.396294	0.314367
12.8799	12.6317	0.397787	0.314916
12.8804	12.6312	0.396711	0.314843
12.8808	12.6307	0.395699	0.315078
12.8813	12.6302	0.396197	0.316629
12.8818	12.6298	0.394356	0.314269
12.8822	12.6293	0.396763	0.315942
12.8827	12.6288	0.396112	0.31751
12.8832	12.6284	0.395669	0.318326
12.8837	12.6279	0.394567	0.315569
12.8841	12.6274	0.395262	0.314266
12.8846	12.6269	0.395555	0.3156
12.8851	12.6265	0.394851	0.316729
12.8856	12.626	0.395245	0.315687
12.886	12.6255	0.396708	0.315731
12.8865	12.625	0.394226	0.312619
12.887	12.6246	0.397965	0.31322
12.8874	12.6241	0.395816	0.313992
12.8879	12.6236	0.394824	0.313485
12.8884	12.6231	0.393564	0.311557
12.8889	12.6227	0.394469	0.308904
12.8893	12.6222	0.396786	0.309351
12.8898	12.6217	0.395625	0.308207
12.8903	12.6213	0.395197	0.308565
12.8907	12.6208	0.395352	0.307225
12.8912	12.6203	0.395062	0.305125
12.8917	12.6198	0.394768	0.306362
12.8922	12.6194	0.396463	0.306923
12.8926	12.6189	0.395721	0.308408
12.8931	12.6184	0.393777	0.306229
12.8936	12.618	0.393554	0.305979
12.8941	12.6175	0.396341	0.306349
12.8945	12.617	0.394638	0.307125
12.895	12.6165	0.39474	0.306957
12.8955	12.616	0.393572	0.30701
12.8959	12.6156	0.392736	0.305131
12.8964	12.6151	0.395948	0.304102
12.8969	12.6146	0.393935	0.306328
12.8974	12.6141	0.393563	0.306736
12.8978	12.6137	0.393462	0.305145
12.8983	12.6132	0.393113	0.303038
12.8988	12.6127	0.39624	0.303291
