# 1304     AichiSR QXAFS
# Start     : 8.9544
# End       : 9.0544
# Dir       : Backward
# Points    : 300
# ScanTime  : 1.01549
# Date      : 13.04.23 22:19
# Ring Cur. : 25.5[mA]
12.7557	12.6117	0.295025	0.2265
12.7562	12.6122	0.293917	0.224108
12.7566	12.6126	0.297503	0.227667
12.7571	12.6131	0.299725	0.230716
12.7576	12.6136	0.296815	0.230694
12.7581	12.614	0.296375	0.230441
12.7585	12.6145	0.297564	0.230532
12.759	12.615	0.29702	0.229419
12.7595	12.6155	0.299047	0.233522
12.7599	12.616	0.301324	0.235074
12.7604	12.6164	0.29994	0.233448
12.7609	12.6169	0.298728	0.232221
12.7614	12.6174	0.29916	0.233175
12.7618	12.6179	0.300702	0.234674
12.7623	12.6183	0.298369	0.234202
12.7628	12.6188	0.299955	0.23437
12.7632	12.6193	0.299604	0.232469
12.7637	12.6197	0.298947	0.233142
12.7642	12.6202	0.299831	0.235312
12.7647	12.6207	0.300285	0.236451
12.7651	12.6212	0.300218	0.235258
12.7656	12.6216	0.29811	0.232622
12.7661	12.6221	0.303237	0.235639
12.7666	12.6226	0.301273	0.237667
12.767	12.623	0.302755	0.238362
12.7675	12.6235	0.301789	0.238376
12.768	12.624	0.30163	0.237461
12.7684	12.6245	0.301548	0.237945
12.7689	12.6249	0.300624	0.239404
12.7694	12.6254	0.302116	0.241894
12.7699	12.6259	0.301596	0.239998
12.7703	12.6264	0.301625	0.23825
12.7708	12.6268	0.301758	0.240578
12.7713	12.6273	0.30236	0.242345
12.7717	12.6278	0.302312	0.243313
12.7722	12.6283	0.302456	0.242466
12.7727	12.6288	0.301599	0.241359
12.7732	12.6292	0.303009	0.242668
12.7736	12.6297	0.30355	0.243907
12.7741	12.6301	0.304633	0.245428
12.7746	12.6306	0.302565	0.243446
12.7751	12.6311	0.302714	0.24144
12.7755	12.6316	0.304517	0.242993
12.776	12.632	0.303452	0.24264
12.7765	12.6325	0.3034	0.245309
12.7769	12.633	0.301806	0.241373
12.7774	12.6334	0.304173	0.242448
12.7779	12.6339	0.303069	0.242167
12.7784	12.6344	0.303494	0.242661
12.7788	12.6348	0.303004	0.244584
12.7793	12.6353	0.304327	0.244385
12.7798	12.6358	0.304588	0.242352
12.7802	12.6363	0.305426	0.244562
12.7807	12.6367	0.304854	0.246064
12.7812	12.6372	0.305169	0.248315
12.7817	12.6377	0.305774	0.246836
12.7821	12.6382	0.306305	0.246869
12.7826	12.6386	0.306488	0.246803
12.7831	12.6391	0.3045	0.248253
12.7836	12.6396	0.305516	0.250912
12.784	12.64	0.304958	0.248697
12.7845	12.6405	0.304319	0.248106
12.785	12.641	0.305764	0.248894
12.7854	12.6415	0.306397	0.250883
12.7859	12.6419	0.304434	0.250734
12.7864	12.6424	0.305607	0.24977
12.7869	12.6428	0.307526	0.249101
12.7873	12.6433	0.304457	0.247195
12.7878	12.6438	0.30686	0.251183
12.7883	12.6442	0.307266	0.249798
12.7887	12.6447	0.303963	0.246055
12.7892	12.6452	0.303621	0.243932
12.7897	12.6457	0.305528	0.245575
12.7902	12.6462	0.305777	0.245964
12.7906	12.6466	0.303159	0.243918
12.7911	12.6471	0.304941	0.244094
12.7916	12.6476	0.307371	0.241892
12.7921	12.6481	0.306432	0.239921
12.7925	12.6486	0.306265	0.240541
12.793	12.649	0.3079	0.241359
12.7935	12.6495	0.308109	0.236645
12.7939	12.65	0.308938	0.234687
12.7944	12.6504	0.308797	0.232488
12.7949	12.6509	0.309713	0.234286
12.7954	12.6514	0.30943	0.231866
12.7958	12.6519	0.307553	0.228544
12.7963	12.6523	0.310622	0.226848
12.7968	12.6528	0.310794	0.225313
12.7972	12.6533	0.31105	0.225604
12.7977	12.6537	0.308543	0.222244
12.7982	12.6542	0.310497	0.221003
12.7987	12.6547	0.310501	0.216903
12.7991	12.6552	0.310122	0.215973
12.7996	12.6556	0.311409	0.218497
12.8001	12.6561	0.311101	0.216509
12.8006	12.6566	0.308583	0.213634
12.801	12.6571	0.310749	0.213674
12.8015	12.6576	0.310954	0.214512
12.802	12.658	0.310242	0.215247
12.8024	12.6585	0.311948	0.217078
12.8029	12.659	0.311131	0.21584
12.8034	12.6594	0.311276	0.214364
12.8039	12.6599	0.310335	0.216791
12.8043	12.6604	0.312151	0.220088
12.8048	12.6608	0.311463	0.219085
12.8053	12.6613	0.311151	0.220461
12.8057	12.6618	0.313697	0.220615
12.8062	12.6623	0.309325	0.222657
12.8067	12.6627	0.310683	0.225195
12.8072	12.6632	0.313674	0.229846
12.8076	12.6636	0.311278	0.227445
12.8081	12.6641	0.311727	0.229167
12.8086	12.6646	0.3127	0.232438
12.8091	12.6651	0.313779	0.236115
12.8095	12.6655	0.311004	0.235229
12.81	12.666	0.314312	0.237146
12.8105	12.6665	0.315327	0.240175
12.8109	12.667	0.311501	0.2409
12.8114	12.6674	0.3119	0.244197
12.8119	12.6679	0.314105	0.246559
12.8124	12.6684	0.312681	0.246381
12.8128	12.6688	0.31257	0.247591
12.8133	12.6693	0.312109	0.251192
12.8138	12.6698	0.313475	0.253386
12.8142	12.6702	0.314248	0.257603
12.8147	12.6707	0.313908	0.256026
12.8152	12.6712	0.315661	0.260308
12.8157	12.6717	0.313867	0.260244
12.8161	12.6721	0.313836	0.26449
12.8166	12.6726	0.316047	0.265141
12.8171	12.6731	0.312748	0.264549
12.8176	12.6735	0.314614	0.264323
12.818	12.674	0.314038	0.267199
12.8185	12.6745	0.315746	0.270529
12.819	12.675	0.313216	0.268749
12.8194	12.6754	0.312333	0.26866
12.8199	12.6759	0.316267	0.269684
12.8204	12.6764	0.312714	0.270794
12.8209	12.6769	0.313064	0.270727
12.8213	12.6774	0.31595	0.273276
12.8218	12.6778	0.315912	0.272172
12.8223	12.6783	0.313936	0.270615
12.8227	12.6788	0.314732	0.270991
12.8232	12.6792	0.316736	0.2731
12.8237	12.6797	0.315348	0.269959
12.8242	12.6802	0.31503	0.267572
12.8246	12.6807	0.316483	0.266468
12.8251	12.6811	0.313734	0.262322
12.8256	12.6816	0.312971	0.261963
12.8261	12.6821	0.314854	0.259339
12.8265	12.6825	0.314109	0.256313
12.827	12.683	0.315019	0.253753
12.8275	12.6835	0.313568	0.252885
12.8279	12.6839	0.313955	0.251061
12.8284	12.6844	0.313919	0.247184
12.8289	12.6849	0.314883	0.243541
12.8294	12.6854	0.31653	0.242799
12.8298	12.6859	0.314321	0.239023
12.8303	12.6863	0.31384	0.236976
12.8308	12.6868	0.314729	0.235046
12.8312	12.6873	0.31653	0.229589
12.8317	12.6878	0.317352	0.224366
12.8322	12.6883	0.31588	0.223291
12.8327	12.6887	0.315221	0.22167
12.8331	12.6892	0.316604	0.219768
12.8336	12.6896	0.317396	0.21776
12.8341	12.6901	0.318233	0.219089
12.8346	12.6906	0.315904	0.218751
12.835	12.691	0.316234	0.222271
12.8355	12.6915	0.317516	0.224831
12.836	12.692	0.316799	0.228336
12.8364	12.6924	0.318156	0.23133
12.8369	12.6929	0.316847	0.236773
12.8374	12.6934	0.315228	0.24051
12.8379	12.6938	0.315394	0.245747
12.8383	12.6943	0.316747	0.24807
12.8388	12.6948	0.318175	0.252364
12.8393	12.6953	0.313582	0.253504
12.8397	12.6957	0.312462	0.254877
12.8402	12.6962	0.316116	0.258133
12.8407	12.6967	0.316494	0.256538
12.8412	12.6972	0.316954	0.255644
12.8416	12.6977	0.314431	0.254728
12.8421	12.6981	0.31533	0.254218
12.8426	12.6986	0.315805	0.249478
12.8431	12.699	0.314825	0.247027
12.8435	12.6995	0.318736	0.244256
12.844	12.7	0.316731	0.241499
12.8445	12.7004	0.314048	0.236308
12.8449	12.7009	0.317169	0.233485
12.8454	12.7014	0.316104	0.22902
12.8459	12.7019	0.315346	0.225305
12.8464	12.7023	0.317392	0.225013
12.8468	12.7028	0.314488	0.224061
12.8473	12.7033	0.313574	0.221219
12.8478	12.7037	0.314613	0.222038
12.8482	12.7042	0.318859	0.227196
12.8487	12.7047	0.314963	0.229554
12.8492	12.7052	0.314796	0.23532
12.8497	12.7057	0.317649	0.244561
12.8501	12.7062	0.317951	0.250533
12.8506	12.7066	0.318553	0.25883
12.8511	12.7071	0.318592	0.271939
12.8516	12.7076	0.318842	0.283198
12.852	12.7081	0.317834	0.29274
12.8525	12.7085	0.316806	0.304716
12.853	12.709	0.319592	0.318317
12.8534	12.7095	0.318623	0.333534
12.8539	12.7099	0.317179	0.34588
12.8544	12.7104	0.31721	0.357828
12.8549	12.7109	0.318145	0.371208
12.8553	12.7114	0.318414	0.383405
12.8558	12.7118	0.319127	0.395913
12.8563	12.7123	0.317997	0.408675
12.8567	12.7128	0.316648	0.416136
12.8572	12.7132	0.31839	0.426012
12.8577	12.7137	0.320432	0.435809
12.8582	12.7142	0.317028	0.442843
12.8586	12.7146	0.315137	0.449622
12.8591	12.7151	0.318225	0.457718
12.8596	12.7156	0.317774	0.465331
12.8601	12.7161	0.316989	0.472012
12.8605	12.7166	0.317244	0.48388
12.861	12.717	0.315804	0.492994
12.8615	12.7175	0.316176	0.496163
12.8619	12.718	0.315722	0.502593
12.8624	12.7185	0.319449	0.504743
12.8629	12.7189	0.316467	0.501258
12.8634	12.7194	0.315137	0.499457
12.8638	12.7198	0.316042	0.496418
12.8643	12.7203	0.316703	0.491133
12.8648	12.7208	0.317374	0.488974
12.8652	12.7213	0.316848	0.490131
12.8657	12.7217	0.316154	0.499704
12.8662	12.7222	0.313502	0.505833
12.8667	12.7227	0.315149	0.529205
12.8671	12.7231	0.316411	0.561948
12.8676	12.7236	0.313084	0.595525
12.8681	12.724	0.310581	0.643419
12.8686	12.7245	0.312079	0.697505
12.869	12.725	0.31121	0.740582
12.8695	12.7255	0.31031	0.778651
12.87	12.726	0.313244	0.823546
12.8704	12.7264	0.313508	0.851761
12.8709	12.7269	0.313301	0.864569
12.8714	12.7274	0.313827	0.88299
12.8719	12.7279	0.316566	0.899319
12.8723	12.7283	0.31341	0.90178
12.8728	12.7288	0.313686	0.912906
12.8733	12.7293	0.315443	0.919369
12.8737	12.7297	0.315336	0.922369
12.8742	12.7302	0.315362	0.922168
12.8747	12.7307	0.314746	0.92886
12.8752	12.7312	0.314672	0.935668
12.8756	12.7316	0.31449	0.931247
12.8761	12.7321	0.315416	0.93665
12.8766	12.7326	0.321353	0.953689
12.8771	12.733	0.317972	0.947136
12.8775	12.7335	0.31435	0.944834
12.878	12.734	0.318083	0.952395
12.8785	12.7345	0.317243	0.947753
12.8789	12.7349	0.316679	0.949682
12.8794	12.7354	0.317821	0.953843
12.8799	12.7359	0.318306	0.958486
12.8804	12.7364	0.31621	0.949912
12.8808	12.7369	0.316593	0.953264
12.8813	12.7374	0.31824	0.960563
12.8818	12.7378	0.31529	0.954688
12.8822	12.7383	0.31427	0.956902
12.8827	12.7388	0.31799	0.959474
12.8832	12.7392	0.31791	0.960486
12.8837	12.7397	0.317415	0.96038
12.8841	12.7402	0.31694	0.961172
12.8846	12.7406	0.316756	0.963953
12.8851	12.7411	0.317197	0.96406
12.8856	12.7416	0.319724	0.968265
12.886	12.7421	0.319292	0.967906
12.8865	12.7425	0.317218	0.963621
12.887	12.743	0.315987	0.968665
12.8874	12.7435	0.31867	0.969024
12.8879	12.7439	0.319437	0.96907
12.8884	12.7444	0.320099	0.967757
12.8889	12.7449	0.320164	0.974579
12.8893	12.7454	0.318298	0.971045
12.8898	12.7458	0.319625	0.970651
12.8903	12.7463	0.321997	0.9793
12.8907	12.7468	0.32222	0.982033
12.8912	12.7473	0.322168	0.975559
12.8917	12.7477	0.320727	0.97958
12.8922	12.7482	0.322157	0.980055
12.8926	12.7487	0.323954	0.983288
12.8931	12.7491	0.323077	0.980406
12.8936	12.7496	0.324219	0.983274
12.8941	12.7501	0.320453	0.980467
12.8945	12.7505	0.322104	0.978334
12.895	12.751	0.322442	0.982655
12.8955	12.7515	0.324283	0.986329
12.8959	12.752	0.322479	0.981832
12.8964	12.7524	0.321793	0.983661
12.8969	12.7529	0.323369	0.982837
12.8974	12.7533	0.324282	0.985069
12.8978	12.7538	0.324748	0.984655
12.8983	12.7543	0.325994	0.987023
12.8988	12.7548	0.32392	0.989699
