# 1304     AichiSR QXAFS
# Start     : 8.9544
# End       : 9.0544
# Dir       : Backward
# Points    : 300
# ScanTime  : 1.01549
# Date      : 13.04.23 22:32
# Ring Cur. : 25.6[mA]
12.7557	12.6118	0.307171	0.234213
12.7562	12.6123	0.304532	0.234631
12.7566	12.6128	0.307508	0.236458
12.7571	12.6132	0.308181	0.237057
12.7576	12.6137	0.30645	0.236156
12.7581	12.6141	0.308815	0.237892
12.7585	12.6146	0.310512	0.240521
12.759	12.6151	0.30958	0.242088
12.7595	12.6156	0.309846	0.242172
12.7599	12.6161	0.31049	0.239646
12.7604	12.6165	0.30946	0.240308
12.7609	12.617	0.308253	0.241444
12.7614	12.6175	0.310799	0.242873
12.7618	12.618	0.311269	0.242371
12.7623	12.6184	0.308676	0.238983
12.7628	12.6189	0.313061	0.241343
12.7632	12.6194	0.311119	0.24308
12.7637	12.6198	0.310427	0.244556
12.7642	12.6203	0.31006	0.243777
12.7647	12.6208	0.310997	0.242005
12.7651	12.6213	0.312706	0.242603
12.7656	12.6217	0.3103	0.243048
12.7661	12.6222	0.312457	0.247452
12.7666	12.6227	0.312306	0.244447
12.767	12.6231	0.309398	0.242836
12.7675	12.6236	0.313089	0.245633
12.768	12.6241	0.313676	0.247309
12.7684	12.6246	0.31245	0.248372
12.7689	12.625	0.309679	0.247157
12.7694	12.6255	0.311474	0.246296
12.7699	12.626	0.313336	0.247847
12.7703	12.6265	0.311089	0.249885
12.7708	12.627	0.312827	0.251103
12.7713	12.6274	0.312002	0.250896
12.7717	12.6279	0.312799	0.249634
12.7722	12.6284	0.314381	0.251613
12.7727	12.6289	0.314258	0.253369
12.7732	12.6293	0.314295	0.254139
12.7736	12.6298	0.314079	0.252983
12.7741	12.6302	0.314123	0.250452
12.7746	12.6307	0.313987	0.251086
12.7751	12.6312	0.314004	0.251005
12.7755	12.6317	0.314545	0.25393
12.776	12.6321	0.314371	0.251067
12.7765	12.6326	0.31299	0.249661
12.7769	12.6331	0.315372	0.250921
12.7774	12.6335	0.31598	0.252963
12.7779	12.634	0.315066	0.253033
12.7784	12.6345	0.315521	0.251738
12.7788	12.635	0.317499	0.252524
12.7793	12.6354	0.316704	0.253753
12.7798	12.6359	0.316475	0.253655
12.7802	12.6364	0.315766	0.255509
12.7807	12.6369	0.315699	0.254702
12.7812	12.6373	0.314995	0.253616
12.7817	12.6378	0.318071	0.256448
12.7821	12.6383	0.316772	0.258663
12.7826	12.6387	0.316824	0.259036
12.7831	12.6392	0.31813	0.258014
12.7836	12.6397	0.317701	0.257392
12.784	12.6401	0.317701	0.258756
12.7845	12.6406	0.317079	0.259424
12.785	12.6411	0.318748	0.261907
12.7854	12.6416	0.319159	0.260454
12.7859	12.642	0.318158	0.258413
12.7864	12.6425	0.319109	0.259047
12.7869	12.6429	0.318525	0.262324
12.7873	12.6434	0.316626	0.259854
12.7878	12.6439	0.315317	0.256994
12.7883	12.6443	0.316984	0.256498
12.7887	12.6448	0.319327	0.256517
12.7892	12.6453	0.315002	0.255496
12.7897	12.6458	0.316414	0.256521
12.7902	12.6463	0.315783	0.253867
12.7906	12.6468	0.317292	0.25107
12.7911	12.6472	0.318534	0.251331
12.7916	12.6477	0.320051	0.25331
12.7921	12.6482	0.320417	0.252682
12.7925	12.6487	0.319647	0.249171
12.793	12.6491	0.320374	0.247609
12.7935	12.6496	0.320849	0.246894
12.7939	12.6501	0.319811	0.244561
12.7944	12.6505	0.320932	0.244414
12.7949	12.651	0.321123	0.241511
12.7954	12.6515	0.319797	0.23555
12.7958	12.652	0.320798	0.2353
12.7963	12.6524	0.323526	0.236438
12.7968	12.6529	0.321831	0.233604
12.7972	12.6534	0.321524	0.231465
12.7977	12.6538	0.323569	0.228853
12.7982	12.6543	0.32447	0.229508
12.7987	12.6548	0.322064	0.227824
12.7991	12.6553	0.323373	0.227837
12.7996	12.6558	0.323475	0.225556
12.8001	12.6562	0.321249	0.221453
12.8006	12.6567	0.322243	0.221546
12.801	12.6572	0.323378	0.224792
12.8015	12.6577	0.322278	0.224373
12.802	12.6581	0.321212	0.222449
12.8024	12.6586	0.322853	0.221043
12.8029	12.6591	0.322249	0.221598
12.8034	12.6595	0.32393	0.225674
12.8039	12.66	0.323364	0.22751
12.8043	12.6605	0.324773	0.227208
12.8048	12.6609	0.323039	0.22682
12.8053	12.6614	0.324511	0.230616
12.8057	12.6619	0.327104	0.233731
12.8062	12.6624	0.324781	0.2348
12.8067	12.6628	0.322554	0.234501
12.8072	12.6633	0.326396	0.235041
12.8076	12.6637	0.324839	0.237936
12.8081	12.6642	0.324205	0.240765
12.8086	12.6647	0.324362	0.243375
12.8091	12.6652	0.326009	0.244231
12.8095	12.6656	0.324417	0.244793
12.81	12.6661	0.325196	0.247049
12.8105	12.6666	0.326024	0.25093
12.8109	12.6671	0.327233	0.253333
12.8114	12.6676	0.324595	0.254342
12.8119	12.668	0.328182	0.257031
12.8124	12.6685	0.325217	0.257608
12.8128	12.669	0.324603	0.259832
12.8133	12.6694	0.327208	0.265748
12.8138	12.6699	0.326423	0.263157
12.8142	12.6703	0.325303	0.264756
12.8147	12.6708	0.324546	0.266281
12.8152	12.6713	0.327176	0.272087
12.8157	12.6718	0.325513	0.271447
12.8161	12.6722	0.324702	0.271622
12.8166	12.6727	0.326848	0.274371
12.8171	12.6732	0.324657	0.275153
12.8176	12.6736	0.325662	0.277263
12.818	12.6741	0.326856	0.279885
12.8185	12.6746	0.32676	0.280076
12.819	12.6751	0.326303	0.278358
12.8194	12.6755	0.325601	0.279262
12.8199	12.676	0.326276	0.282379
12.8204	12.6765	0.32665	0.281779
12.8209	12.677	0.325877	0.281218
12.8213	12.6775	0.327173	0.280789
12.8218	12.6779	0.32455	0.279799
12.8223	12.6784	0.326331	0.28291
12.8227	12.6789	0.325326	0.28295
12.8232	12.6793	0.32628	0.27957
12.8237	12.6798	0.328573	0.278206
12.8242	12.6803	0.326108	0.275948
12.8246	12.6808	0.327517	0.277328
12.8251	12.6812	0.327001	0.273801
12.8256	12.6817	0.327079	0.270592
12.8261	12.6822	0.328353	0.267687
12.8265	12.6826	0.326749	0.265262
12.827	12.6831	0.325021	0.263521
12.8275	12.6836	0.325286	0.259788
12.8279	12.6841	0.326991	0.257447
12.8284	12.6845	0.326399	0.254886
12.8289	12.685	0.326132	0.252225
12.8294	12.6855	0.326129	0.250291
12.8298	12.686	0.327094	0.247904
12.8303	12.6865	0.326823	0.241965
12.8308	12.6869	0.329923	0.240657
12.8312	12.6874	0.32789	0.236381
12.8317	12.6879	0.325389	0.23508
12.8322	12.6884	0.328588	0.231749
12.8327	12.6888	0.327825	0.227268
12.8331	12.6893	0.329417	0.226498
12.8336	12.6897	0.327947	0.226257
12.8341	12.6902	0.329181	0.228268
12.8346	12.6907	0.326582	0.227635
12.835	12.6912	0.327962	0.230075
12.8355	12.6916	0.331006	0.233224
12.836	12.6921	0.328004	0.236513
12.8364	12.6926	0.327049	0.242401
12.8369	12.693	0.32888	0.249132
12.8374	12.6935	0.328256	0.251529
12.8379	12.694	0.329305	0.254254
12.8383	12.6944	0.328585	0.260661
12.8388	12.6949	0.329408	0.264622
12.8393	12.6954	0.327021	0.264374
12.8397	12.6959	0.32808	0.265624
12.8402	12.6963	0.331656	0.266595
12.8407	12.6968	0.327923	0.26525
12.8412	12.6973	0.326175	0.265096
12.8416	12.6978	0.328181	0.264112
12.8421	12.6982	0.327726	0.260286
12.8426	12.6987	0.328144	0.257218
12.8431	12.6992	0.326659	0.254253
12.8435	12.6996	0.327699	0.253154
12.844	12.7001	0.326719	0.247731
12.8445	12.7006	0.32688	0.242393
12.8449	12.701	0.328892	0.239801
12.8454	12.7015	0.328455	0.236822
12.8459	12.702	0.327474	0.234992
12.8464	12.7024	0.327967	0.232653
12.8468	12.7029	0.328191	0.23039
12.8473	12.7034	0.327851	0.230309
12.8478	12.7039	0.326404	0.23351
12.8482	12.7043	0.32816	0.237528
12.8487	12.7048	0.328289	0.242328
12.8492	12.7053	0.326083	0.245423
12.8497	12.7058	0.329855	0.255189
12.8501	12.7063	0.32823	0.264986
12.8506	12.7067	0.327103	0.273607
12.8511	12.7072	0.329449	0.286941
12.8516	12.7077	0.329052	0.298183
12.852	12.7082	0.329063	0.309093
12.8525	12.7086	0.3295	0.323097
12.853	12.7091	0.329771	0.339621
12.8534	12.7096	0.32993	0.351786
12.8539	12.71	0.329878	0.364102
12.8544	12.7105	0.331107	0.379212
12.8549	12.711	0.329466	0.393244
12.8553	12.7115	0.328344	0.404845
12.8558	12.7119	0.330395	0.41756
12.8563	12.7124	0.329804	0.426477
12.8567	12.7129	0.329449	0.436193
12.8572	12.7133	0.328363	0.445585
12.8577	12.7138	0.329692	0.456984
12.8582	12.7143	0.329642	0.463331
12.8586	12.7148	0.329178	0.470678
12.8591	12.7152	0.330276	0.47865
12.8596	12.7157	0.330116	0.489588
12.8601	12.7162	0.329811	0.49846
12.8605	12.7167	0.32991	0.507636
12.861	12.7171	0.329433	0.515972
12.8615	12.7176	0.328996	0.519831
12.8619	12.7181	0.328651	0.521918
12.8624	12.7186	0.326725	0.523896
12.8629	12.719	0.32695	0.519228
12.8634	12.7195	0.327544	0.51552
12.8638	12.7199	0.329219	0.510887
12.8643	12.7204	0.327431	0.50781
12.8648	12.7209	0.327124	0.507852
12.8652	12.7214	0.327496	0.510746
12.8657	12.7218	0.330865	0.521352
12.8662	12.7223	0.328033	0.533736
12.8667	12.7228	0.327804	0.56006
12.8671	12.7232	0.326953	0.601139
12.8676	12.7237	0.324419	0.64021
12.8681	12.7242	0.32271	0.689748
12.8686	12.7246	0.325267	0.747696
12.869	12.7251	0.322788	0.792056
12.8695	12.7256	0.320235	0.828209
12.87	12.7261	0.323043	0.866274
12.8704	12.7265	0.325141	0.891791
12.8709	12.727	0.32588	0.906659
12.8714	12.7275	0.325841	0.92031
12.8719	12.728	0.326773	0.939331
12.8723	12.7284	0.325404	0.939917
12.8728	12.7289	0.325735	0.949732
12.8733	12.7294	0.329673	0.957092
12.8737	12.7298	0.326165	0.957054
12.8742	12.7303	0.323059	0.955864
12.8747	12.7308	0.327107	0.969513
12.8752	12.7313	0.328396	0.974011
12.8756	12.7317	0.326221	0.966081
12.8761	12.7322	0.324762	0.969808
12.8766	12.7327	0.327599	0.977832
12.8771	12.7331	0.324185	0.974415
12.8775	12.7336	0.32805	0.976115
12.878	12.7341	0.329188	0.985118
12.8785	12.7346	0.325845	0.981191
12.8789	12.7351	0.325285	0.982513
12.8794	12.7355	0.326605	0.983207
12.8799	12.736	0.328773	0.990092
12.8804	12.7365	0.328257	0.987044
12.8808	12.737	0.327071	0.990735
12.8813	12.7375	0.326707	0.99015
12.8818	12.7379	0.326488	0.985564
12.8822	12.7384	0.328996	0.991841
12.8827	12.7389	0.332274	1.0025
12.8832	12.7393	0.329073	0.996679
12.8837	12.7398	0.326734	0.992279
12.8841	12.7403	0.32634	0.99308
12.8846	12.7407	0.330038	0.996393
12.8851	12.7412	0.329882	0.997005
12.8856	12.7417	0.328691	1.00012
12.886	12.7422	0.328992	0.999238
12.8865	12.7426	0.327747	0.996041
12.887	12.7431	0.32978	1.00148
12.8874	12.7436	0.330785	1.00338
12.8879	12.744	0.328888	1.0013
12.8884	12.7445	0.327852	0.999647
12.8889	12.745	0.328277	0.99741
12.8893	12.7455	0.330129	1.00104
12.8898	12.7459	0.331646	1.00362
12.8903	12.7464	0.330284	1.00614
12.8907	12.7469	0.328383	1.0044
12.8912	12.7474	0.32812	1.0023
12.8917	12.7478	0.33154	1.00773
12.8922	12.7483	0.331839	1.00935
12.8926	12.7488	0.332957	1.01012
12.8931	12.7492	0.328625	1.00541
12.8936	12.7497	0.331818	1.00951
12.8941	12.7502	0.333295	1.01419
12.8945	12.7506	0.333325	1.01193
12.895	12.7511	0.331374	1.01251
12.8955	12.7516	0.330127	1.01229
12.8959	12.7521	0.33084	1.01099
12.8964	12.7525	0.333098	1.01164
12.8969	12.753	0.333663	1.01665
12.8974	12.7534	0.333439	1.01546
12.8978	12.7539	0.331691	1.01279
12.8983	12.7544	0.331738	1.01354
12.8988	12.7549	0.335035	1.01798
