# 1304     AichiSR QXAFS
# Start     : 8.9544
# End       : 9.0544
# Dir       : Forward
# Points    : 300
# ScanTime  : 1.01549
# Date      : 13.04.23 22:21
# Ring Cur. : 25.5[mA]
12.7557	12.7557	0.397445	1.21311
12.7562	12.7552	0.398438	1.2099
12.7566	12.7548	0.398855	1.21553
12.7571	12.7543	0.398627	1.21668
12.7576	12.7538	0.398	1.21386
12.7581	12.7533	0.396724	1.21021
12.7585	12.7529	0.399186	1.20859
12.759	12.7524	0.398436	1.21301
12.7595	12.752	0.396997	1.21236
12.7599	12.7515	0.396368	1.2106
12.7604	12.751	0.395862	1.20758
12.7609	12.7505	0.396858	1.20731
12.7614	12.7501	0.39662	1.20621
12.7618	12.7496	0.398021	1.21003
12.7623	12.7491	0.397052	1.21034
12.7628	12.7487	0.396118	1.20387
12.7632	12.7482	0.397363	1.20431
12.7637	12.7477	0.396352	1.20966
12.7642	12.7473	0.395839	1.20734
12.7647	12.7468	0.397289	1.20499
12.7651	12.7463	0.395579	1.20183
12.7656	12.7458	0.396863	1.20226
12.7661	12.7454	0.397242	1.20713
12.7666	12.7449	0.396288	1.20502
12.767	12.7444	0.396869	1.20513
12.7675	12.7439	0.394717	1.20002
12.768	12.7435	0.401404	1.21134
12.7684	12.743	0.399746	1.21208
12.7689	12.7425	0.396685	1.20429
12.7694	12.7421	0.395715	1.20406
12.7699	12.7416	0.394795	1.19916
12.7703	12.7411	0.397778	1.19792
12.7708	12.7406	0.396216	1.19955
12.7713	12.7402	0.395324	1.19989
12.7717	12.7397	0.394829	1.19765
12.7722	12.7392	0.393866	1.19415
12.7727	12.7388	0.395845	1.19392
12.7732	12.7383	0.394973	1.19693
12.7736	12.7378	0.394742	1.1958
12.7741	12.7374	0.39486	1.19136
12.7746	12.7369	0.395666	1.19007
12.7751	12.7364	0.396587	1.18911
12.7755	12.7359	0.39571	1.19041
12.776	12.7354	0.394834	1.19105
12.7765	12.735	0.393245	1.18652
12.7769	12.7345	0.394153	1.18449
12.7774	12.734	0.39495	1.18327
12.7779	12.7335	0.394987	1.18505
12.7784	12.733	0.394244	1.18174
12.7788	12.7326	0.396528	1.18145
12.7793	12.7321	0.395982	1.17849
12.7798	12.7317	0.395154	1.17396
12.7802	12.7312	0.397305	1.1748
12.7807	12.7307	0.395302	1.17277
12.7812	12.7302	0.394986	1.16539
12.7817	12.7297	0.394757	1.16294
12.7821	12.7293	0.395753	1.16227
12.7826	12.7288	0.396171	1.15797
12.7831	12.7284	0.393861	1.15351
12.7836	12.7279	0.395232	1.14421
12.784	12.7274	0.394686	1.13237
12.7845	12.7269	0.394652	1.11914
12.785	12.7265	0.394513	1.1083
12.7854	12.726	0.393093	1.08401
12.7859	12.7255	0.390714	1.05312
12.7864	12.725	0.391777	1.01341
12.7869	12.7245	0.392349	0.969532
12.7873	12.7241	0.391672	0.919142
12.7878	12.7236	0.391475	0.860421
12.7883	12.7231	0.393678	0.798048
12.7887	12.7227	0.394458	0.738932
12.7892	12.7222	0.398176	0.695055
12.7897	12.7218	0.396653	0.662184
12.7902	12.7213	0.396141	0.636254
12.7906	12.7208	0.396542	0.620226
12.7911	12.7203	0.396112	0.613506
12.7916	12.7199	0.397787	0.613602
12.7921	12.7194	0.398786	0.61852
12.7925	12.7189	0.397051	0.62287
12.793	12.7185	0.397667	0.625879
12.7935	12.718	0.396892	0.628412
12.7939	12.7175	0.397413	0.628854
12.7944	12.7171	0.397676	0.629901
12.7949	12.7166	0.395639	0.622329
12.7954	12.7161	0.396416	0.613629
12.7958	12.7156	0.397662	0.601818
12.7963	12.7151	0.398318	0.59144
12.7968	12.7147	0.397909	0.58104
12.7972	12.7142	0.396614	0.572451
12.7977	12.7137	0.397253	0.559115
12.7982	12.7132	0.397937	0.546671
12.7987	12.7128	0.398601	0.538778
12.7991	12.7123	0.39883	0.53048
12.7996	12.7118	0.395734	0.518794
12.8001	12.7114	0.396305	0.503288
12.8006	12.7109	0.397738	0.487181
12.801	12.7104	0.399487	0.475556
12.8015	12.7099	0.4	0.462826
12.802	12.7095	0.398107	0.446119
12.8024	12.709	0.398327	0.426326
12.8029	12.7085	0.397678	0.408798
12.8034	12.7081	0.398097	0.392902
12.8039	12.7076	0.398505	0.378792
12.8043	12.7071	0.398846	0.364484
12.8048	12.7066	0.39746	0.347598
12.8053	12.7062	0.397156	0.332688
12.8057	12.7057	0.399086	0.321531
12.8062	12.7052	0.398842	0.312024
12.8067	12.7047	0.396592	0.302374
12.8072	12.7042	0.399117	0.293654
12.8076	12.7038	0.39874	0.288162
12.8081	12.7033	0.399164	0.282526
12.8086	12.7028	0.398898	0.281127
12.8091	12.7024	0.398079	0.281829
12.8095	12.7019	0.397559	0.279023
12.81	12.7014	0.398728	0.281367
12.8105	12.7009	0.39963	0.284645
12.8109	12.7005	0.398914	0.290809
12.8114	12.7	0.396914	0.295463
12.8119	12.6995	0.398917	0.298424
12.8124	12.6991	0.397315	0.301122
12.8128	12.6986	0.398014	0.306456
12.8133	12.6981	0.397994	0.311408
12.8138	12.6977	0.39852	0.316244
12.8142	12.6972	0.396272	0.31727
12.8147	12.6967	0.398049	0.319478
12.8152	12.6962	0.398486	0.322676
12.8157	12.6958	0.398942	0.323466
12.8161	12.6953	0.397091	0.323757
12.8166	12.6948	0.398048	0.32057
12.8171	12.6943	0.398534	0.319809
12.8176	12.6939	0.397564	0.31479
12.818	12.6934	0.397886	0.312277
12.8185	12.6929	0.397906	0.307636
12.819	12.6925	0.397811	0.298718
12.8194	12.692	0.398174	0.293247
12.8199	12.6915	0.398368	0.287443
12.8204	12.6911	0.399034	0.285391
12.8209	12.6906	0.396263	0.280322
12.8213	12.6901	0.397768	0.275833
12.8218	12.6897	0.399146	0.273155
12.8223	12.6892	0.397847	0.272503
12.8227	12.6887	0.398447	0.275718
12.8232	12.6883	0.395789	0.276648
12.8237	12.6878	0.397075	0.277585
12.8242	12.6873	0.39666	0.28077
12.8246	12.6868	0.397706	0.285639
12.8251	12.6864	0.397767	0.290154
12.8256	12.6859	0.39531	0.294508
12.8261	12.6854	0.394787	0.295821
12.8265	12.6849	0.394682	0.30104
12.827	12.6844	0.394868	0.305253
12.8275	12.684	0.396744	0.30954
12.8279	12.6835	0.395355	0.312633
12.8284	12.683	0.394132	0.314038
12.8289	12.6826	0.395409	0.315832
12.8294	12.6821	0.396463	0.319203
12.8298	12.6816	0.396657	0.324095
12.8303	12.6812	0.393857	0.327234
12.8308	12.6807	0.395818	0.327897
12.8312	12.6802	0.39698	0.331433
12.8317	12.6797	0.39684	0.334724
12.8322	12.6793	0.398308	0.338757
12.8327	12.6788	0.39729	0.340398
12.8331	12.6783	0.398961	0.3402
12.8336	12.6779	0.396986	0.340655
12.8341	12.6774	0.399134	0.341881
12.8346	12.6769	0.398366	0.343112
12.835	12.6764	0.395864	0.343544
12.8355	12.6759	0.396468	0.34027
12.836	12.6755	0.396896	0.339744
12.8364	12.675	0.396151	0.339934
12.8369	12.6745	0.398643	0.341291
12.8374	12.674	0.395882	0.339003
12.8379	12.6735	0.395647	0.336353
12.8383	12.6731	0.396564	0.335212
12.8388	12.6726	0.39675	0.33481
12.8393	12.6721	0.39685	0.335445
12.8397	12.6717	0.39563	0.332102
12.8402	12.6712	0.393906	0.329047
12.8407	12.6707	0.396546	0.327434
12.8412	12.6703	0.395676	0.324988
12.8416	12.6698	0.396663	0.323956
12.8421	12.6693	0.394755	0.322015
12.8426	12.6689	0.395624	0.317679
12.8431	12.6684	0.396772	0.314349
12.8435	12.6679	0.397564	0.31364
12.844	12.6675	0.396568	0.312314
12.8445	12.667	0.393575	0.308748
12.8449	12.6665	0.39458	0.303804
12.8454	12.666	0.3969	0.302571
12.8459	12.6656	0.394708	0.301647
12.8464	12.6651	0.397048	0.300587
12.8468	12.6646	0.394272	0.297331
12.8473	12.6641	0.39424	0.293287
12.8478	12.6637	0.394795	0.28992
12.8482	12.6632	0.395226	0.291262
12.8487	12.6627	0.395201	0.288776
12.8492	12.6623	0.392441	0.287087
12.8497	12.6618	0.39458	0.283729
12.8501	12.6613	0.394765	0.282373
12.8506	12.6609	0.394584	0.279387
12.8511	12.6604	0.393521	0.278613
12.8516	12.6599	0.393459	0.276056
12.852	12.6595	0.393089	0.273862
12.8525	12.659	0.393808	0.272057
12.853	12.6585	0.394075	0.272066
12.8534	12.6581	0.394583	0.272421
12.8539	12.6576	0.393126	0.270924
12.8544	12.6571	0.394046	0.268759
12.8549	12.6566	0.392906	0.268933
12.8553	12.6561	0.393832	0.271181
12.8558	12.6557	0.394534	0.273004
12.8563	12.6552	0.391784	0.272691
12.8567	12.6547	0.394157	0.272565
12.8572	12.6542	0.393045	0.274083
12.8577	12.6537	0.393856	0.277775
12.8582	12.6533	0.391665	0.280618
12.8586	12.6528	0.392444	0.281204
12.8591	12.6523	0.392615	0.283207
12.8596	12.6519	0.393694	0.285039
12.8601	12.6514	0.393564	0.289444
12.8605	12.6509	0.393442	0.291739
12.861	12.6505	0.392081	0.293282
12.8615	12.65	0.392597	0.294843
12.8619	12.6495	0.392646	0.297253
12.8624	12.649	0.393658	0.30004
12.8629	12.6486	0.393413	0.304167
12.8634	12.6481	0.391297	0.305205
12.8638	12.6476	0.390917	0.304081
12.8643	12.6471	0.392239	0.306747
12.8648	12.6467	0.389148	0.307115
12.8652	12.6462	0.389439	0.309923
12.8657	12.6457	0.39003	0.311879
12.8662	12.6452	0.38813	0.310653
12.8667	12.6447	0.389244	0.311961
12.8671	12.6443	0.389829	0.31391
12.8676	12.6438	0.389072	0.316582
12.8681	12.6433	0.388981	0.316345
12.8686	12.6429	0.389703	0.314412
12.869	12.6424	0.391902	0.318127
12.8695	12.6419	0.39272	0.318768
12.87	12.6415	0.391191	0.319625
12.8704	12.641	0.390951	0.320375
12.8709	12.6405	0.390019	0.319095
12.8714	12.6401	0.391631	0.317673
12.8719	12.6396	0.392426	0.31812
12.8723	12.6391	0.391115	0.320348
12.8728	12.6387	0.390619	0.317862
12.8733	12.6382	0.390197	0.316127
12.8737	12.6377	0.392705	0.316052
12.8742	12.6373	0.390943	0.316596
12.8747	12.6368	0.389946	0.316185
12.8752	12.6363	0.390347	0.314809
12.8756	12.6358	0.390641	0.311386
12.8761	12.6353	0.391534	0.312733
12.8766	12.6349	0.389505	0.311964
12.8771	12.6344	0.388638	0.312625
12.8775	12.6339	0.388975	0.3114
12.878	12.6335	0.389564	0.310127
12.8785	12.633	0.391017	0.309379
12.8789	12.6325	0.389559	0.311108
12.8794	12.6321	0.389594	0.310669
12.8799	12.6316	0.389119	0.3103
12.8804	12.6311	0.38974	0.308262
12.8808	12.6306	0.389316	0.309552
12.8813	12.6302	0.389389	0.311398
12.8818	12.6297	0.388825	0.312004
12.8822	12.6292	0.388368	0.309921
12.8827	12.6288	0.387958	0.30972
12.8832	12.6283	0.389771	0.310428
12.8837	12.6278	0.388065	0.310891
12.8841	12.6273	0.386346	0.311336
12.8846	12.6269	0.387381	0.309143
12.8851	12.6264	0.388183	0.30813
12.8856	12.6259	0.388931	0.308631
12.886	12.6254	0.388696	0.309338
12.8865	12.6249	0.387568	0.308561
12.887	12.6245	0.388954	0.306804
12.8874	12.624	0.387826	0.305918
12.8879	12.6235	0.389361	0.305022
12.8884	12.6231	0.387159	0.304341
12.8889	12.6226	0.38675	0.305382
12.8893	12.6221	0.387733	0.302873
12.8898	12.6217	0.386415	0.301887
12.8903	12.6212	0.388911	0.300924
12.8907	12.6207	0.387508	0.301954
12.8912	12.6202	0.385939	0.302102
12.8917	12.6197	0.385027	0.299747
12.8922	12.6193	0.384879	0.299505
12.8926	12.6188	0.387931	0.299575
12.8931	12.6183	0.386714	0.300565
12.8936	12.6179	0.384218	0.299999
12.8941	12.6174	0.385077	0.2988
12.8945	12.6169	0.384138	0.29804
12.895	12.6164	0.38603	0.299265
12.8955	12.616	0.385726	0.300282
12.8959	12.6155	0.383801	0.301029
12.8964	12.615	0.382819	0.299161
12.8969	12.6145	0.384643	0.298283
12.8974	12.6141	0.38745	0.2977
12.8978	12.6136	0.383971	0.297668
12.8983	12.6131	0.384898	0.29855
12.8988	12.6127	0.384791	0.295041
