# 1304     AichiSR QXAFS
# Start     : 8.9544
# End       : 9.0544
# Dir       : Forward
# Points    : 300
# ScanTime  : 1.01549
# Date      : 13.04.23 22:26
# Ring Cur. : 25.5[mA]
12.7557	12.7557	0.40461	1.22371
12.7562	12.7553	0.401156	1.22532
12.7566	12.7548	0.400407	1.22644
12.7571	12.7543	0.400991	1.22094
12.7576	12.7538	0.401398	1.22135
12.7581	12.7534	0.401185	1.2237
12.7585	12.7529	0.402644	1.2251
12.759	12.7524	0.399992	1.22422
12.7595	12.752	0.400483	1.22094
12.7599	12.7515	0.400125	1.21927
12.7604	12.751	0.401575	1.21899
12.7609	12.7506	0.400484	1.21943
12.7614	12.7501	0.398727	1.22299
12.7618	12.7496	0.401334	1.21815
12.7623	12.7492	0.40022	1.2183
12.7628	12.7487	0.401988	1.21505
12.7632	12.7482	0.401633	1.2189
12.7637	12.7478	0.400279	1.21892
12.7642	12.7473	0.399222	1.21406
12.7647	12.7468	0.400907	1.21477
12.7651	12.7463	0.399908	1.21617
12.7656	12.7459	0.400136	1.21479
12.7661	12.7454	0.399847	1.21757
12.7666	12.7449	0.399219	1.21445
12.767	12.7444	0.400242	1.21326
12.7675	12.744	0.399678	1.2115
12.768	12.7435	0.399406	1.21578
12.7684	12.743	0.397626	1.2135
12.7689	12.7426	0.3988	1.21155
12.7694	12.7421	0.399054	1.21077
12.7699	12.7416	0.400324	1.21068
12.7703	12.7412	0.400359	1.21219
12.7708	12.7407	0.398435	1.21312
12.7713	12.7402	0.39934	1.20982
12.7717	12.7397	0.398295	1.20417
12.7722	12.7393	0.399325	1.20603
12.7727	12.7388	0.40034	1.20952
12.7732	12.7383	0.398804	1.20922
12.7736	12.7379	0.3992	1.2033
12.7741	12.7374	0.397882	1.20056
12.7746	12.7369	0.399756	1.20125
12.7751	12.7364	0.399172	1.20222
12.7755	12.7359	0.397951	1.19946
12.776	12.7355	0.398177	1.20038
12.7765	12.735	0.397855	1.19675
12.7769	12.7345	0.398604	1.19411
12.7774	12.734	0.398588	1.19544
12.7779	12.7335	0.396237	1.19503
12.7784	12.7331	0.397495	1.18809
12.7788	12.7326	0.398458	1.18595
12.7793	12.7321	0.397747	1.18483
12.7798	12.7317	0.39721	1.18465
12.7802	12.7312	0.396277	1.18149
12.7807	12.7307	0.39664	1.17639
12.7812	12.7302	0.395384	1.16975
12.7817	12.7298	0.396401	1.16658
12.7821	12.7293	0.398183	1.16602
12.7826	12.7288	0.396493	1.16262
12.7831	12.7284	0.396082	1.14855
12.7836	12.7279	0.395721	1.14396
12.784	12.7274	0.395444	1.13317
12.7845	12.727	0.395764	1.12225
12.785	12.7265	0.394846	1.10698
12.7854	12.726	0.392514	1.08155
12.7859	12.7255	0.391438	1.05082
12.7864	12.725	0.389724	1.01358
12.7869	12.7246	0.390418	0.970509
12.7873	12.7241	0.38913	0.915535
12.7878	12.7236	0.389711	0.850035
12.7883	12.7232	0.391956	0.790517
12.7887	12.7227	0.393918	0.734667
12.7892	12.7222	0.396121	0.68972
12.7897	12.7218	0.393925	0.65601
12.7902	12.7213	0.394263	0.631858
12.7906	12.7208	0.394902	0.616744
12.7911	12.7203	0.394295	0.611767
12.7916	12.7199	0.395502	0.61276
12.7921	12.7194	0.394047	0.614641
12.7925	12.719	0.393327	0.61689
12.793	12.7185	0.392625	0.620944
12.7935	12.718	0.394412	0.623769
12.7939	12.7176	0.396033	0.627272
12.7944	12.7171	0.392628	0.62278
12.7949	12.7166	0.393754	0.615063
12.7954	12.7161	0.394527	0.607174
12.7958	12.7157	0.3952	0.59624
12.7963	12.7152	0.394192	0.586516
12.7968	12.7147	0.393366	0.574264
12.7972	12.7142	0.393839	0.563131
12.7977	12.7137	0.394063	0.551305
12.7982	12.7133	0.393114	0.542887
12.7987	12.7128	0.393722	0.537169
12.7991	12.7123	0.391649	0.523269
12.7996	12.7119	0.39179	0.507494
12.8001	12.7114	0.390876	0.494646
12.8006	12.7109	0.393127	0.484008
12.801	12.7104	0.392236	0.470436
12.8015	12.71	0.39198	0.454651
12.802	12.7095	0.391755	0.43718
12.8024	12.709	0.392247	0.420205
12.8029	12.7086	0.391351	0.403388
12.8034	12.7081	0.392321	0.389193
12.8039	12.7076	0.391755	0.373516
12.8043	12.7071	0.391963	0.355888
12.8048	12.7067	0.391413	0.339714
12.8053	12.7062	0.392366	0.327783
12.8057	12.7057	0.392411	0.316554
12.8062	12.7052	0.391187	0.307333
12.8067	12.7047	0.389911	0.296439
12.8072	12.7043	0.391795	0.28793
12.8076	12.7038	0.39258	0.282223
12.8081	12.7033	0.390832	0.280518
12.8086	12.7028	0.389467	0.277553
12.8091	12.7024	0.390212	0.273805
12.8095	12.7019	0.391687	0.274156
12.81	12.7015	0.391108	0.275957
12.8105	12.701	0.391287	0.282147
12.8109	12.7005	0.389388	0.284287
12.8114	12.7	0.390125	0.286986
12.8119	12.6996	0.391603	0.291409
12.8124	12.6991	0.394811	0.298806
12.8128	12.6986	0.390439	0.302696
12.8133	12.6982	0.38963	0.306232
12.8138	12.6977	0.39085	0.307787
12.8142	12.6972	0.390591	0.311013
12.8147	12.6967	0.390749	0.313248
12.8152	12.6963	0.391555	0.316673
12.8157	12.6958	0.388512	0.316318
12.8161	12.6953	0.388348	0.315237
12.8166	12.6948	0.390687	0.313247
12.8171	12.6944	0.389738	0.312042
12.8176	12.6939	0.388492	0.309583
12.818	12.6934	0.388396	0.303829
12.8185	12.693	0.389165	0.29783
12.819	12.6925	0.388729	0.293315
12.8194	12.692	0.389056	0.287986
12.8199	12.6916	0.389716	0.284013
12.8204	12.6911	0.388029	0.279936
12.8209	12.6906	0.387415	0.27153
12.8213	12.6901	0.390336	0.268811
12.8218	12.6897	0.388404	0.26881
12.8223	12.6892	0.389314	0.268237
12.8227	12.6888	0.388686	0.267599
12.8232	12.6883	0.390115	0.269175
12.8237	12.6878	0.391513	0.271474
12.8242	12.6873	0.388699	0.275586
12.8246	12.6869	0.388894	0.279677
12.8251	12.6864	0.388383	0.284137
12.8256	12.6859	0.386254	0.286907
12.8261	12.6854	0.388936	0.290767
12.8265	12.6849	0.3898	0.296147
12.827	12.6845	0.38914	0.300735
12.8275	12.684	0.388119	0.302962
12.8279	12.6835	0.388477	0.304789
12.8284	12.683	0.390713	0.308742
12.8289	12.6826	0.389064	0.310784
12.8294	12.6821	0.39073	0.316404
12.8298	12.6817	0.3912	0.319427
12.8303	12.6812	0.389756	0.319741
12.8308	12.6807	0.392325	0.323777
12.8312	12.6802	0.390833	0.328046
12.8317	12.6797	0.391247	0.331027
12.8322	12.6793	0.390618	0.334722
12.8327	12.6788	0.390046	0.333773
12.8331	12.6784	0.392501	0.334634
12.8336	12.6779	0.39233	0.33726
12.8341	12.6774	0.392718	0.339728
12.8346	12.6769	0.3918	0.338236
12.835	12.6764	0.390241	0.336496
12.8355	12.676	0.392412	0.33779
12.836	12.6755	0.391008	0.337846
12.8364	12.675	0.391967	0.33717
12.8369	12.6745	0.392997	0.336099
12.8374	12.674	0.392029	0.333426
12.8379	12.6736	0.392985	0.332805
12.8383	12.6731	0.391732	0.33335
12.8388	12.6726	0.392083	0.332906
12.8393	12.6722	0.390866	0.330735
12.8397	12.6717	0.391037	0.327189
12.8402	12.6712	0.393929	0.327206
12.8407	12.6708	0.394066	0.326357
12.8412	12.6703	0.39214	0.324016
12.8416	12.6698	0.39206	0.321482
12.8421	12.6694	0.39243	0.317489
12.8426	12.6689	0.393064	0.315197
12.8431	12.6684	0.393035	0.312841
12.8435	12.668	0.393693	0.312916
12.844	12.6675	0.392638	0.309274
12.8445	12.667	0.392334	0.305018
12.8449	12.6665	0.393852	0.303226
12.8454	12.6661	0.393941	0.301997
12.8459	12.6656	0.392348	0.300256
12.8464	12.6651	0.393433	0.298028
12.8468	12.6646	0.391725	0.293552
12.8473	12.6642	0.393673	0.292466
12.8478	12.6637	0.392877	0.289801
12.8482	12.6632	0.393084	0.289888
12.8487	12.6628	0.391943	0.285647
12.8492	12.6623	0.391796	0.282683
12.8497	12.6618	0.392717	0.281397
12.8501	12.6614	0.392006	0.281759
12.8506	12.6609	0.392326	0.279568
12.8511	12.6604	0.391517	0.276934
12.8516	12.6599	0.391967	0.274128
12.852	12.6595	0.393923	0.272976
12.8525	12.659	0.392078	0.271771
12.853	12.6585	0.390569	0.271632
12.8534	12.6581	0.392881	0.27065
12.8539	12.6576	0.391584	0.268637
12.8544	12.6571	0.393391	0.26973
12.8549	12.6566	0.393029	0.269823
12.8553	12.6562	0.391145	0.271137
12.8558	12.6557	0.392623	0.272212
12.8563	12.6552	0.392899	0.270814
12.8567	12.6547	0.391227	0.272329
12.8572	12.6542	0.392198	0.275753
12.8577	12.6538	0.392997	0.277159
12.8582	12.6533	0.393366	0.27855
12.8586	12.6528	0.391771	0.27977
12.8591	12.6524	0.39297	0.283079
12.8596	12.6519	0.393182	0.286704
12.8601	12.6514	0.391929	0.289248
12.8605	12.651	0.392804	0.290673
12.861	12.6505	0.392211	0.291851
12.8615	12.65	0.394882	0.294973
12.8619	12.6495	0.393745	0.298968
12.8624	12.6491	0.39209	0.300828
12.8629	12.6486	0.39315	0.3028
12.8634	12.6481	0.391408	0.302619
12.8638	12.6477	0.392962	0.305666
12.8643	12.6472	0.390559	0.306994
12.8648	12.6467	0.388516	0.308575
12.8652	12.6462	0.389194	0.308834
12.8657	12.6457	0.388577	0.310541
12.8662	12.6453	0.388969	0.310931
12.8667	12.6448	0.388514	0.311961
12.8671	12.6443	0.387521	0.31608
12.8676	12.6438	0.388855	0.314571
12.8681	12.6434	0.390647	0.31481
12.8686	12.6429	0.390191	0.316173
12.869	12.6424	0.392534	0.320001
12.8695	12.642	0.390865	0.320115
12.87	12.6415	0.391749	0.317944
12.8704	12.641	0.392662	0.31788
12.8709	12.6406	0.393416	0.318576
12.8714	12.6401	0.392972	0.320712
12.8719	12.6396	0.391632	0.319242
12.8723	12.6392	0.392058	0.317684
12.8728	12.6387	0.391048	0.316185
12.8733	12.6382	0.391768	0.316712
12.8737	12.6378	0.390389	0.317402
12.8742	12.6373	0.390273	0.31778
12.8747	12.6368	0.389285	0.314686
12.8752	12.6363	0.392125	0.312336
12.8756	12.6359	0.391138	0.313292
12.8761	12.6354	0.391308	0.314166
12.8766	12.6349	0.390587	0.313183
12.8771	12.6344	0.390591	0.313373
12.8775	12.634	0.390065	0.309926
12.878	12.6335	0.390817	0.310494
12.8785	12.633	0.391082	0.312291
12.8789	12.6326	0.389081	0.312372
12.8794	12.6321	0.389869	0.309431
12.8799	12.6316	0.390849	0.309971
12.8804	12.6312	0.390188	0.310026
12.8808	12.6307	0.38925	0.311336
12.8813	12.6302	0.388273	0.311293
12.8818	12.6297	0.388099	0.309689
12.8822	12.6293	0.389849	0.310962
12.8827	12.6288	0.390444	0.311995
12.8832	12.6283	0.391196	0.313169
12.8837	12.6279	0.388392	0.311582
12.8841	12.6274	0.390739	0.311462
12.8846	12.6269	0.391489	0.309694
12.8851	12.6264	0.390196	0.310768
12.8856	12.6259	0.390057	0.310734
12.886	12.6255	0.388052	0.310288
12.8865	12.625	0.390002	0.307752
12.887	12.6245	0.389373	0.305998
12.8874	12.624	0.389317	0.306662
12.8879	12.6235	0.389483	0.307703
12.8884	12.6231	0.386707	0.306505
12.8889	12.6226	0.386697	0.303431
12.8893	12.6221	0.390088	0.303035
12.8898	12.6217	0.389079	0.303253
12.8903	12.6212	0.38867	0.30346
12.8907	12.6207	0.38741	0.303212
12.8912	12.6202	0.38911	0.301626
12.8917	12.6198	0.388643	0.301545
12.8922	12.6193	0.389385	0.301693
12.8926	12.6188	0.388562	0.302666
12.8931	12.6184	0.387198	0.301201
12.8936	12.6179	0.387179	0.300489
12.8941	12.6174	0.387646	0.300448
12.8945	12.6169	0.386436	0.301649
12.895	12.6165	0.387943	0.301604
12.8955	12.616	0.386743	0.300441
12.8959	12.6155	0.38736	0.300244
12.8964	12.615	0.386409	0.299265
12.8969	12.6146	0.387016	0.300809
12.8974	12.6141	0.388231	0.300904
12.8978	12.6136	0.385835	0.298595
12.8983	12.6132	0.386047	0.297673
12.8988	12.6127	0.387575	0.297282
