# 1304     AichiSR QXAFS
# Start     : 8.9544
# End       : 9.0544
# Dir       : Backward
# Points    : 300
# ScanTime  : 1.01549
# Date      : 13.04.23 22:21
# Ring Cur. : 25.5[mA]
12.7557	12.6117	0.301359	0.229712
12.7562	12.6122	0.30177	0.231379
12.7566	12.6126	0.300042	0.231589
12.7571	12.6131	0.300996	0.230957
12.7576	12.6136	0.303115	0.232406
12.7581	12.6141	0.301524	0.234197
12.7585	12.6145	0.304013	0.237376
12.759	12.615	0.301251	0.234929
12.7595	12.6155	0.301443	0.234228
12.7599	12.616	0.305058	0.235799
12.7604	12.6164	0.306101	0.237283
12.7609	12.6169	0.303267	0.237276
12.7614	12.6174	0.302636	0.236077
12.7618	12.6179	0.303011	0.23674
12.7623	12.6183	0.302874	0.234322
12.7628	12.6188	0.302336	0.235562
12.7632	12.6193	0.304138	0.238233
12.7637	12.6197	0.303452	0.237702
12.7642	12.6202	0.30062	0.234111
12.7647	12.6207	0.306456	0.237492
12.7651	12.6212	0.304703	0.238162
12.7656	12.6216	0.303813	0.238189
12.7661	12.6221	0.303655	0.238558
12.7666	12.6226	0.304274	0.236132
12.767	12.623	0.306842	0.239328
12.7675	12.6235	0.303796	0.239773
12.768	12.624	0.30517	0.24224
12.7684	12.6245	0.302123	0.240605
12.7689	12.6249	0.300804	0.237337
12.7694	12.6254	0.307171	0.242629
12.7699	12.6259	0.304932	0.242903
12.7703	12.6264	0.303641	0.243898
12.7708	12.6268	0.302611	0.243447
12.7713	12.6273	0.302689	0.242401
12.7717	12.6278	0.305832	0.242604
12.7722	12.6283	0.303814	0.244427
12.7727	12.6288	0.303354	0.245795
12.7732	12.6292	0.303757	0.244329
12.7736	12.6297	0.303359	0.243347
12.7741	12.6301	0.305886	0.244405
12.7746	12.6306	0.304389	0.244133
12.7751	12.6311	0.305311	0.245758
12.7755	12.6316	0.304479	0.243946
12.776	12.632	0.304082	0.241265
12.7765	12.6325	0.30648	0.243025
12.7769	12.633	0.306181	0.245035
12.7774	12.6334	0.306218	0.244852
12.7779	12.6339	0.305047	0.244023
12.7784	12.6344	0.303777	0.242287
12.7788	12.6349	0.308377	0.243531
12.7793	12.6353	0.30449	0.245155
12.7798	12.6358	0.304567	0.246328
12.7802	12.6363	0.304575	0.245341
12.7807	12.6368	0.306404	0.24446
12.7812	12.6372	0.305748	0.244987
12.7817	12.6377	0.305828	0.248254
12.7821	12.6382	0.305431	0.24948
12.7826	12.6386	0.305854	0.248638
12.7831	12.6391	0.302095	0.245972
12.7836	12.6396	0.306742	0.249309
12.784	12.64	0.306573	0.250173
12.7845	12.6405	0.305506	0.250136
12.785	12.641	0.304717	0.249862
12.7854	12.6415	0.305365	0.249915
12.7859	12.6419	0.306896	0.248173
12.7864	12.6424	0.306259	0.249701
12.7869	12.6428	0.306908	0.251915
12.7873	12.6433	0.305085	0.249582
12.7878	12.6438	0.303077	0.246282
12.7883	12.6442	0.306252	0.248064
12.7887	12.6447	0.30421	0.246713
12.7892	12.6452	0.302645	0.246707
12.7897	12.6457	0.302862	0.245643
12.7902	12.6462	0.304208	0.243677
12.7906	12.6466	0.305478	0.242222
12.7911	12.6471	0.305802	0.243799
12.7916	12.6476	0.305842	0.24304
12.7921	12.6481	0.306292	0.240644
12.7925	12.6486	0.303908	0.237045
12.793	12.649	0.309017	0.238014
12.7935	12.6495	0.306617	0.236309
12.7939	12.65	0.304542	0.235041
12.7944	12.6504	0.306343	0.232743
12.7949	12.6509	0.308309	0.230417
12.7954	12.6514	0.307255	0.228366
12.7958	12.6519	0.307887	0.227711
12.7963	12.6523	0.308768	0.227843
12.7968	12.6528	0.307308	0.223892
12.7972	12.6533	0.305525	0.22043
12.7977	12.6537	0.30899	0.220967
12.7982	12.6542	0.310025	0.220823
12.7987	12.6547	0.30805	0.218119
12.7991	12.6552	0.307689	0.215393
12.7996	12.6556	0.309533	0.214013
12.8001	12.6561	0.312867	0.216673
12.8006	12.6566	0.311342	0.217136
12.801	12.6571	0.309275	0.213941
12.8015	12.6576	0.307177	0.212726
12.802	12.658	0.307553	0.211363
12.8024	12.6585	0.308922	0.212944
12.8029	12.659	0.307528	0.214675
12.8034	12.6594	0.308485	0.215051
12.8039	12.6599	0.308796	0.215289
12.8043	12.6604	0.309241	0.216255
12.8048	12.6608	0.310103	0.216962
12.8053	12.6613	0.311349	0.220952
12.8057	12.6618	0.311256	0.223355
12.8062	12.6623	0.309406	0.222249
12.8067	12.6627	0.310176	0.223273
12.8072	12.6632	0.312411	0.225246
12.8076	12.6636	0.31166	0.228531
12.8081	12.6641	0.309437	0.229968
12.8086	12.6646	0.310124	0.23004
12.8091	12.6651	0.312296	0.230849
12.8095	12.6655	0.310447	0.23316
12.81	12.666	0.311613	0.235888
12.8105	12.6665	0.311199	0.239704
12.8109	12.667	0.309978	0.239449
12.8114	12.6674	0.309565	0.239984
12.8119	12.6679	0.313379	0.245657
12.8124	12.6684	0.312865	0.24833
12.8128	12.6689	0.310343	0.248752
12.8133	12.6693	0.313127	0.252055
12.8138	12.6698	0.313216	0.25206
12.8142	12.6702	0.314894	0.255339
12.8147	12.6707	0.31353	0.25836
12.8152	12.6712	0.314107	0.262121
12.8157	12.6717	0.311318	0.260009
12.8161	12.6721	0.311085	0.260412
12.8166	12.6726	0.315168	0.265343
12.8171	12.6731	0.314479	0.266155
12.8176	12.6735	0.311297	0.264948
12.818	12.674	0.313211	0.268864
12.8185	12.6745	0.315205	0.268799
12.819	12.675	0.314281	0.268247
12.8194	12.6754	0.316118	0.273327
12.8199	12.6759	0.317205	0.274943
12.8204	12.6764	0.316663	0.27147
12.8209	12.6769	0.314111	0.271288
12.8213	12.6774	0.316584	0.272417
12.8218	12.6778	0.316326	0.27324
12.8223	12.6783	0.313849	0.272785
12.8227	12.6788	0.314332	0.271397
12.8232	12.6792	0.316028	0.271114
12.8237	12.6797	0.314259	0.268435
12.8242	12.6802	0.316516	0.270842
12.8246	12.6807	0.317784	0.26929
12.8251	12.6811	0.316226	0.264443
12.8256	12.6816	0.316449	0.263129
12.8261	12.6821	0.31976	0.261791
12.8265	12.6825	0.317855	0.260329
12.827	12.683	0.315823	0.257795
12.8275	12.6835	0.318828	0.253894
12.8279	12.684	0.317507	0.250436
12.8284	12.6844	0.316353	0.249164
12.8289	12.6849	0.317499	0.246772
12.8294	12.6854	0.316627	0.245184
12.8298	12.6859	0.314807	0.240566
12.8303	12.6863	0.316789	0.23635
12.8308	12.6868	0.317753	0.23444
12.8312	12.6873	0.318685	0.23188
12.8317	12.6878	0.319082	0.229349
12.8322	12.6883	0.319155	0.226229
12.8327	12.6887	0.319001	0.222046
12.8331	12.6892	0.320897	0.221714
12.8336	12.6896	0.321218	0.22252
12.8341	12.6901	0.320331	0.222101
12.8346	12.6906	0.318139	0.220222
12.835	12.6911	0.320372	0.222359
12.8355	12.6915	0.319904	0.226064
12.836	12.692	0.318984	0.229744
12.8364	12.6925	0.316892	0.234669
12.8369	12.6929	0.31899	0.237712
12.8374	12.6934	0.321368	0.24334
12.8379	12.6938	0.319542	0.247406
12.8383	12.6943	0.321077	0.252324
12.8388	12.6948	0.321901	0.25791
12.8393	12.6953	0.319993	0.256627
12.8397	12.6958	0.321312	0.258137
12.8402	12.6962	0.322116	0.260777
12.8407	12.6967	0.321732	0.262037
12.8412	12.6972	0.319316	0.26086
12.8416	12.6977	0.321142	0.256355
12.8421	12.6981	0.322053	0.256563
12.8426	12.6986	0.320963	0.253513
12.8431	12.699	0.319767	0.251035
12.8435	12.6995	0.320468	0.247568
12.844	12.7	0.318113	0.242382
12.8445	12.7004	0.319925	0.237109
12.8449	12.7009	0.319773	0.236371
12.8454	12.7014	0.320311	0.234301
12.8459	12.7019	0.320121	0.231412
12.8464	12.7023	0.321969	0.228107
12.8468	12.7028	0.322929	0.225932
12.8473	12.7033	0.320256	0.22498
12.8478	12.7037	0.321905	0.228747
12.8482	12.7042	0.322502	0.232887
12.8487	12.7047	0.320787	0.232959
12.8492	12.7052	0.322896	0.238883
12.8497	12.7057	0.322844	0.24768
12.8501	12.7062	0.322318	0.255593
12.8506	12.7066	0.320951	0.265074
12.8511	12.7071	0.322555	0.273217
12.8516	12.7076	0.325029	0.286085
12.852	12.7081	0.3227	0.298435
12.8525	12.7085	0.324502	0.314701
12.853	12.709	0.325483	0.328962
12.8534	12.7095	0.324411	0.33905
12.8539	12.7099	0.324006	0.351433
12.8544	12.7104	0.324666	0.36933
12.8549	12.7109	0.325359	0.382326
12.8553	12.7114	0.324184	0.394063
12.8558	12.7118	0.323357	0.402032
12.8563	12.7123	0.325148	0.414849
12.8567	12.7128	0.324019	0.42439
12.8572	12.7132	0.324046	0.435598
12.8577	12.7137	0.325122	0.44577
12.8582	12.7142	0.323275	0.449533
12.8586	12.7146	0.323693	0.458834
12.8591	12.7151	0.324964	0.470188
12.8596	12.7156	0.324335	0.479255
12.8601	12.7161	0.324706	0.487273
12.8605	12.7166	0.32414	0.494684
12.861	12.717	0.325693	0.503821
12.8615	12.7175	0.323333	0.509784
12.8619	12.718	0.324053	0.515082
12.8624	12.7185	0.324306	0.516002
12.8629	12.7189	0.32241	0.510498
12.8634	12.7194	0.3246	0.51041
12.8638	12.7198	0.324326	0.50832
12.8643	12.7203	0.323308	0.502228
12.8648	12.7208	0.323673	0.502833
12.8652	12.7213	0.323802	0.50162
12.8657	12.7217	0.324878	0.51127
12.8662	12.7222	0.321813	0.520175
12.8667	12.7227	0.324633	0.546969
12.8671	12.7231	0.325335	0.579894
12.8676	12.7236	0.320162	0.612897
12.8681	12.7241	0.322582	0.662257
12.8686	12.7245	0.320108	0.716409
12.869	12.725	0.318866	0.763925
12.8695	12.7255	0.318224	0.804601
12.87	12.726	0.320443	0.840636
12.8704	12.7264	0.321083	0.868871
12.8709	12.7269	0.321542	0.88852
12.8714	12.7274	0.322834	0.906536
12.8719	12.7279	0.324606	0.926466
12.8723	12.7283	0.321069	0.925389
12.8728	12.7288	0.324166	0.935055
12.8733	12.7293	0.323975	0.943366
12.8737	12.7297	0.324611	0.947705
12.8742	12.7302	0.322436	0.949415
12.8747	12.7307	0.323157	0.95592
12.8752	12.7312	0.323623	0.958278
12.8756	12.7316	0.322625	0.957813
12.8761	12.7321	0.323309	0.96597
12.8766	12.7326	0.324126	0.968664
12.8771	12.733	0.322865	0.963498
12.8775	12.7335	0.324199	0.96362
12.878	12.734	0.324492	0.974008
12.8785	12.7345	0.323205	0.972378
12.8789	12.7349	0.323394	0.973628
12.8794	12.7354	0.325235	0.97675
12.8799	12.7359	0.327182	0.980487
12.8804	12.7364	0.325682	0.978346
12.8808	12.7369	0.325126	0.981226
12.8813	12.7374	0.326674	0.986564
12.8818	12.7378	0.323881	0.979507
12.8822	12.7383	0.325007	0.977916
12.8827	12.7388	0.325468	0.98396
12.8832	12.7392	0.324803	0.985178
12.8837	12.7397	0.324089	0.982638
12.8841	12.7402	0.324258	0.98446
12.8846	12.7406	0.32686	0.983095
12.8851	12.7411	0.324989	0.988127
12.8856	12.7416	0.326818	0.992497
12.886	12.7421	0.326972	0.991187
12.8865	12.7425	0.325244	0.987972
12.887	12.743	0.327069	0.99199
12.8874	12.7435	0.327874	0.992875
12.8879	12.7439	0.325208	0.992722
12.8884	12.7444	0.327277	0.993907
12.8889	12.7449	0.326403	0.991982
12.8893	12.7454	0.327554	0.991061
12.8898	12.7458	0.328024	0.992448
12.8903	12.7463	0.327129	0.999801
12.8907	12.7468	0.327878	0.998696
12.8912	12.7473	0.327284	0.990119
12.8917	12.7477	0.328774	0.994327
12.8922	12.7482	0.32908	1.0002
12.8926	12.7487	0.32825	1.0008
12.8931	12.7491	0.327067	0.995812
12.8936	12.7496	0.329255	1.00192
12.8941	12.7501	0.329182	0.997326
12.8945	12.7505	0.328067	0.996489
12.895	12.751	0.327162	1.00067
12.8955	12.7515	0.327527	1.00284
12.8959	12.752	0.328574	0.99836
12.8964	12.7524	0.327521	0.993557
12.8969	12.7529	0.328628	0.998901
12.8974	12.7533	0.326701	0.999108
12.8978	12.7538	0.327233	1.00085
12.8983	12.7543	0.327523	0.99899
12.8988	12.7548	0.330941	1.00303
