# 1304     AichiSR QXAFS
# Start     : 8.9544
# End       : 9.0544
# Dir       : Backward
# Points    : 300
# ScanTime  : 1.01549
# Date      : 13.04.23 22:26
# Ring Cur. : 25.5[mA]
12.7557	12.6118	0.300637	0.22919
12.7562	12.6122	0.300413	0.229111
12.7566	12.6127	0.300796	0.231535
12.7571	12.6131	0.30243	0.235126
12.7576	12.6136	0.302702	0.233566
12.7581	12.6141	0.300513	0.232078
12.7585	12.6146	0.303252	0.234076
12.759	12.615	0.302436	0.236284
12.7595	12.6155	0.30192	0.23575
12.7599	12.616	0.305165	0.236442
12.7604	12.6165	0.304803	0.23558
12.7609	12.6169	0.303931	0.234477
12.7614	12.6174	0.303158	0.237502
12.7618	12.6179	0.304505	0.238662
12.7623	12.6184	0.302002	0.235787
12.7628	12.6188	0.303203	0.235463
12.7632	12.6193	0.307118	0.238475
12.7637	12.6198	0.305528	0.238221
12.7642	12.6202	0.302887	0.237337
12.7647	12.6207	0.306373	0.239078
12.7651	12.6212	0.304599	0.236474
12.7656	12.6217	0.303391	0.237368
12.7661	12.6222	0.306869	0.241054
12.7666	12.6226	0.304832	0.240823
12.767	12.6231	0.30464	0.239678
12.7675	12.6235	0.304659	0.238093
12.768	12.624	0.306438	0.242434
12.7684	12.6245	0.305227	0.241932
12.7689	12.625	0.302728	0.24254
12.7694	12.6255	0.304964	0.243267
12.7699	12.6259	0.304878	0.240933
12.7703	12.6264	0.304936	0.242421
12.7708	12.6269	0.305191	0.245105
12.7713	12.6274	0.305909	0.246603
12.7717	12.6279	0.304294	0.244326
12.7722	12.6283	0.305914	0.244265
12.7727	12.6288	0.307424	0.245022
12.7732	12.6293	0.30702	0.245794
12.7736	12.6297	0.305778	0.246614
12.7741	12.6302	0.305763	0.245327
12.7746	12.6307	0.306107	0.243724
12.7751	12.6311	0.307001	0.244304
12.7755	12.6316	0.308316	0.247208
12.776	12.6321	0.304417	0.245951
12.7765	12.6325	0.305499	0.244473
12.7769	12.633	0.306522	0.243352
12.7774	12.6335	0.306846	0.243979
12.7779	12.6339	0.307419	0.245659
12.7784	12.6344	0.307722	0.246041
12.7788	12.6349	0.30871	0.245367
12.7793	12.6354	0.307497	0.245475
12.7798	12.6358	0.307626	0.246195
12.7802	12.6363	0.308838	0.247981
12.7807	12.6368	0.307258	0.248845
12.7812	12.6373	0.306343	0.2475
12.7817	12.6377	0.309233	0.248394
12.7821	12.6382	0.307032	0.249469
12.7826	12.6387	0.308402	0.250189
12.7831	12.6391	0.307608	0.251846
12.7836	12.6396	0.308858	0.251884
12.784	12.6401	0.309893	0.250397
12.7845	12.6405	0.309635	0.252521
12.785	12.641	0.310071	0.253452
12.7854	12.6415	0.309267	0.253445
12.7859	12.642	0.307863	0.250794
12.7864	12.6424	0.310699	0.252064
12.7869	12.6429	0.308934	0.252666
12.7873	12.6433	0.307817	0.251518
12.7878	12.6438	0.306496	0.252152
12.7883	12.6443	0.30783	0.24981
12.7887	12.6448	0.309171	0.248565
12.7892	12.6452	0.306191	0.247246
12.7897	12.6457	0.309264	0.248491
12.7902	12.6462	0.306941	0.248638
12.7906	12.6467	0.306114	0.244568
12.7911	12.6472	0.309282	0.243694
12.7916	12.6476	0.310578	0.245047
12.7921	12.6481	0.310173	0.245262
12.7925	12.6486	0.306733	0.240799
12.793	12.6491	0.30953	0.240385
12.7935	12.6495	0.310955	0.238965
12.7939	12.65	0.309989	0.236252
12.7944	12.6505	0.31014	0.235367
12.7949	12.651	0.310032	0.234899
12.7954	12.6514	0.309403	0.230392
12.7958	12.6519	0.310937	0.228622
12.7963	12.6524	0.310723	0.227778
12.7968	12.6528	0.311597	0.226806
12.7972	12.6533	0.311001	0.22477
12.7977	12.6538	0.312236	0.223248
12.7982	12.6542	0.314107	0.220204
12.7987	12.6547	0.311291	0.219384
12.7991	12.6552	0.313929	0.220069
12.7996	12.6557	0.311785	0.218771
12.8001	12.6562	0.310507	0.21571
12.8006	12.6566	0.313327	0.215488
12.801	12.6571	0.314914	0.216427
12.8015	12.6576	0.312149	0.216579
12.802	12.6581	0.311346	0.215765
12.8024	12.6585	0.314171	0.215421
12.8029	12.659	0.313333	0.215687
12.8034	12.6595	0.313042	0.216727
12.8039	12.6599	0.312579	0.217904
12.8043	12.6604	0.312768	0.220711
12.8048	12.6609	0.311655	0.220013
12.8053	12.6614	0.313827	0.222386
12.8057	12.6618	0.313261	0.223535
12.8062	12.6623	0.312636	0.225669
12.8067	12.6627	0.313676	0.227193
12.8072	12.6632	0.31454	0.22772
12.8076	12.6637	0.314789	0.22915
12.8081	12.6641	0.314474	0.231821
12.8086	12.6646	0.314465	0.234871
12.8091	12.6651	0.31405	0.235801
12.8095	12.6656	0.312268	0.235392
12.81	12.6661	0.316075	0.239643
12.8105	12.6665	0.314212	0.240703
12.8109	12.667	0.313978	0.242078
12.8114	12.6675	0.314162	0.245617
12.8119	12.668	0.314387	0.245738
12.8124	12.6684	0.314807	0.247139
12.8128	12.6689	0.313604	0.249681
12.8133	12.6693	0.314562	0.254454
12.8138	12.6698	0.315074	0.256863
12.8142	12.6703	0.313496	0.256068
12.8147	12.6707	0.31583	0.258362
12.8152	12.6712	0.3156	0.261174
12.8157	12.6717	0.314138	0.262219
12.8161	12.6722	0.314931	0.264508
12.8166	12.6726	0.314126	0.263935
12.8171	12.6731	0.315813	0.264402
12.8176	12.6736	0.315188	0.266079
12.818	12.674	0.314869	0.268769
12.8185	12.6745	0.313956	0.270212
12.819	12.675	0.315108	0.268704
12.8194	12.6755	0.316728	0.268762
12.8199	12.676	0.316065	0.271771
12.8204	12.6764	0.315282	0.274313
12.8209	12.6769	0.315608	0.273054
12.8213	12.6774	0.314983	0.271982
12.8218	12.6779	0.318554	0.273243
12.8223	12.6784	0.316595	0.273514
12.8227	12.6788	0.316566	0.273877
12.8232	12.6793	0.316188	0.272267
12.8237	12.6797	0.31545	0.269527
12.8242	12.6802	0.315823	0.268387
12.8246	12.6807	0.315835	0.268093
12.8251	12.6812	0.316105	0.265363
12.8256	12.6817	0.314599	0.261392
12.8261	12.6821	0.314408	0.257723
12.8265	12.6826	0.317907	0.256351
12.827	12.683	0.315035	0.253726
12.8275	12.6835	0.314194	0.254095
12.8279	12.684	0.315311	0.25046
12.8284	12.6845	0.314354	0.247035
12.8289	12.6849	0.316704	0.244963
12.8294	12.6854	0.316735	0.244021
12.8298	12.6859	0.316348	0.241493
12.8303	12.6864	0.314314	0.23699
12.8308	12.6869	0.314479	0.23223
12.8312	12.6873	0.316991	0.229972
12.8317	12.6878	0.317131	0.226751
12.8322	12.6883	0.314497	0.224825
12.8327	12.6888	0.316811	0.221304
12.8331	12.6892	0.316341	0.217217
12.8336	12.6897	0.316977	0.218421
12.8341	12.6901	0.318732	0.219371
12.8346	12.6906	0.317028	0.21908
12.835	12.6911	0.315373	0.221688
12.8355	12.6916	0.317257	0.222587
12.836	12.692	0.319075	0.228885
12.8364	12.6925	0.316176	0.232495
12.8369	12.693	0.317301	0.239105
12.8374	12.6934	0.315478	0.241755
12.8379	12.6939	0.31571	0.243359
12.8383	12.6944	0.317208	0.247972
12.8388	12.6948	0.317755	0.253574
12.8393	12.6953	0.315907	0.254431
12.8397	12.6958	0.315709	0.255997
12.8402	12.6963	0.316339	0.256549
12.8407	12.6967	0.3179	0.257412
12.8412	12.6972	0.314896	0.256011
12.8416	12.6977	0.314818	0.255059
12.8421	12.6982	0.315278	0.25222
12.8426	12.6986	0.31472	0.248545
12.8431	12.6991	0.31658	0.246418
12.8435	12.6995	0.316915	0.243324
12.844	12.7	0.314396	0.239951
12.8445	12.7005	0.313073	0.234774
12.8449	12.701	0.316351	0.231925
12.8454	12.7015	0.316448	0.227434
12.8459	12.7019	0.313891	0.225277
12.8464	12.7024	0.31388	0.225093
12.8468	12.7028	0.315375	0.221999
12.8473	12.7033	0.313534	0.220164
12.8478	12.7038	0.316697	0.223369
12.8482	12.7043	0.316303	0.227313
12.8487	12.7047	0.314756	0.231026
12.8492	12.7052	0.314722	0.234308
12.8497	12.7057	0.317439	0.243314
12.8501	12.7062	0.317937	0.252641
12.8506	12.7067	0.316342	0.260866
12.8511	12.7072	0.315297	0.27292
12.8516	12.7076	0.316293	0.28265
12.852	12.7081	0.315407	0.292511
12.8525	12.7086	0.318222	0.307848
12.853	12.709	0.317447	0.322079
12.8534	12.7095	0.316107	0.334607
12.8539	12.71	0.317991	0.346297
12.8544	12.7104	0.317816	0.36072
12.8549	12.7109	0.32098	0.376956
12.8553	12.7114	0.320319	0.389409
12.8558	12.7119	0.318807	0.400693
12.8563	12.7123	0.317293	0.4078
12.8567	12.7128	0.317273	0.41698
12.8572	12.7133	0.317598	0.426238
12.8577	12.7137	0.317917	0.436116
12.8582	12.7142	0.317122	0.441462
12.8586	12.7147	0.316819	0.450107
12.8591	12.7152	0.318203	0.458351
12.8596	12.7157	0.318547	0.468176
12.8601	12.7161	0.317085	0.477159
12.8605	12.7166	0.315464	0.485715
12.861	12.7171	0.316584	0.4925
12.8615	12.7176	0.316277	0.499949
12.8619	12.718	0.317419	0.503057
12.8624	12.7185	0.316987	0.505169
12.8629	12.719	0.314432	0.502426
12.8634	12.7194	0.316512	0.497768
12.8638	12.7199	0.317892	0.494743
12.8643	12.7203	0.317205	0.493017
12.8648	12.7208	0.315995	0.490485
12.8652	12.7213	0.316533	0.494772
12.8657	12.7218	0.315305	0.498875
12.8662	12.7222	0.315157	0.509267
12.8667	12.7227	0.316013	0.53564
12.8671	12.7232	0.317842	0.571019
12.8676	12.7236	0.315557	0.608435
12.8681	12.7241	0.312208	0.650869
12.8686	12.7246	0.314905	0.706653
12.869	12.725	0.316016	0.758215
12.8695	12.7255	0.314195	0.797138
12.87	12.726	0.313237	0.834712
12.8704	12.7265	0.31603	0.858745
12.8709	12.7269	0.316535	0.877096
12.8714	12.7274	0.318363	0.891582
12.8719	12.7279	0.319477	0.911071
12.8723	12.7284	0.317427	0.9151
12.8728	12.7288	0.315073	0.913675
12.8733	12.7293	0.318984	0.927028
12.8737	12.7298	0.319877	0.935975
12.8742	12.7302	0.318539	0.938587
12.8747	12.7307	0.31901	0.94463
12.8752	12.7312	0.319392	0.945988
12.8756	12.7317	0.318803	0.946909
12.8761	12.7321	0.319445	0.951234
12.8766	12.7326	0.321942	0.962247
12.8771	12.7331	0.317998	0.957127
12.8775	12.7336	0.316473	0.951454
12.878	12.734	0.321653	0.963002
12.8785	12.7345	0.321894	0.964348
12.8789	12.735	0.319132	0.959692
12.8794	12.7355	0.319898	0.966406
12.8799	12.736	0.322314	0.970546
12.8804	12.7364	0.320809	0.964272
12.8808	12.7369	0.321973	0.970492
12.8813	12.7374	0.32441	0.977389
12.8818	12.7379	0.320079	0.973486
12.8822	12.7383	0.320896	0.967803
12.8827	12.7388	0.323736	0.979022
12.8832	12.7393	0.323235	0.97911
12.8837	12.7397	0.322119	0.975167
12.8841	12.7402	0.322133	0.97912
12.8846	12.7407	0.322332	0.977977
12.8851	12.7412	0.323237	0.978074
12.8856	12.7416	0.324367	0.98425
12.886	12.7421	0.324614	0.984256
12.8865	12.7426	0.320989	0.980763
12.887	12.743	0.323174	0.980692
12.8874	12.7435	0.325907	0.988081
12.8879	12.744	0.324969	0.985062
12.8884	12.7444	0.326051	0.987651
12.8889	12.7449	0.325721	0.993206
12.8893	12.7454	0.325792	0.98904
12.8898	12.7459	0.325377	0.988735
12.8903	12.7464	0.327537	0.993816
12.8907	12.7468	0.327473	0.995365
12.8912	12.7473	0.32575	0.992727
12.8917	12.7478	0.324334	0.988639
12.8922	12.7483	0.328076	0.992424
12.8926	12.7487	0.328627	0.995234
12.8931	12.7492	0.325614	0.991397
12.8936	12.7496	0.325754	0.996127
12.8941	12.7501	0.326444	0.994339
12.8945	12.7506	0.327497	0.993887
12.895	12.7511	0.328411	0.996473
12.8955	12.7515	0.328267	1.0022
12.8959	12.752	0.327838	0.999362
12.8964	12.7525	0.325553	0.993066
12.8969	12.7529	0.328641	0.999744
12.8974	12.7534	0.32748	0.998402
12.8978	12.7538	0.326407	0.998103
12.8983	12.7543	0.327709	0.998926
12.8988	12.7548	0.327602	1.00107
