# 1304     AichiSR QXAFS
# Start     : 8.9544
# End       : 9.0544
# Dir       : Forward
# Points    : 300
# ScanTime  : 1.01549
# Date      : 13.04.23 22:19
# Ring Cur. : 25.5[mA]
12.7557	12.7557	0.401431	1.22056
12.7562	12.7552	0.401733	1.22076
12.7566	12.7548	0.401988	1.22108
12.7571	12.7543	0.402039	1.22264
12.7576	12.7538	0.399554	1.22206
12.7581	12.7533	0.399947	1.21881
12.7585	12.7529	0.40147	1.21823
12.759	12.7524	0.401085	1.2214
12.7595	12.752	0.400977	1.22281
12.7599	12.7515	0.399776	1.22009
12.7604	12.751	0.401109	1.22132
12.7609	12.7505	0.401553	1.21906
12.7614	12.7501	0.400905	1.21757
12.7618	12.7496	0.401632	1.22381
12.7623	12.7491	0.398433	1.22154
12.7628	12.7487	0.39987	1.21478
12.7632	12.7482	0.400901	1.21522
12.7637	12.7477	0.401314	1.21753
12.7642	12.7473	0.400185	1.2165
12.7647	12.7468	0.398939	1.21521
12.7651	12.7463	0.399164	1.21595
12.7656	12.7458	0.398687	1.21162
12.7661	12.7454	0.400328	1.21691
12.7666	12.7449	0.399768	1.21708
12.767	12.7444	0.398274	1.21679
12.7675	12.7439	0.398944	1.21099
12.768	12.7435	0.400881	1.21317
12.7684	12.743	0.400067	1.21274
12.7689	12.7425	0.400437	1.21005
12.7694	12.7421	0.398444	1.21244
12.7699	12.7416	0.398887	1.20958
12.7703	12.7411	0.400145	1.20808
12.7708	12.7406	0.398977	1.20721
12.7713	12.7402	0.399415	1.2107
12.7717	12.7397	0.397852	1.21044
12.7722	12.7392	0.398164	1.20447
12.7727	12.7388	0.399758	1.20482
12.7732	12.7383	0.397778	1.20376
12.7736	12.7378	0.399074	1.20467
12.7741	12.7374	0.397818	1.20359
12.7746	12.7369	0.398476	1.20216
12.7751	12.7364	0.398336	1.19865
12.7755	12.7359	0.398928	1.19856
12.776	12.7354	0.398246	1.20032
12.7765	12.735	0.396953	1.19634
12.7769	12.7345	0.398257	1.19391
12.7774	12.734	0.399815	1.19248
12.7779	12.7335	0.396584	1.1904
12.7784	12.733	0.396963	1.18925
12.7788	12.7326	0.396821	1.18807
12.7793	12.7321	0.396154	1.18365
12.7798	12.7317	0.397807	1.17895
12.7802	12.7312	0.397363	1.17974
12.7807	12.7307	0.396955	1.17813
12.7812	12.7302	0.397158	1.17427
12.7817	12.7298	0.395063	1.16761
12.7821	12.7293	0.398096	1.16228
12.7826	12.7288	0.397184	1.15559
12.7831	12.7284	0.39542	1.15169
12.7836	12.7279	0.39431	1.14314
12.784	12.7274	0.393949	1.12804
12.7845	12.7269	0.396402	1.11411
12.785	12.7265	0.395022	1.10369
12.7854	12.726	0.393433	1.07831
12.7859	12.7255	0.391567	1.04883
12.7864	12.725	0.389542	1.00456
12.7869	12.7245	0.390622	0.961348
12.7873	12.7241	0.390686	0.909427
12.7878	12.7236	0.390923	0.848047
12.7883	12.7231	0.391515	0.787337
12.7887	12.7227	0.394077	0.731556
12.7892	12.7222	0.394505	0.683179
12.7897	12.7218	0.394368	0.651994
12.7902	12.7213	0.395678	0.632121
12.7906	12.7208	0.39384	0.618089
12.7911	12.7203	0.393279	0.609099
12.7916	12.7199	0.39573	0.611443
12.7921	12.7194	0.394799	0.613973
12.7925	12.7189	0.394682	0.619683
12.793	12.7185	0.392969	0.622059
12.7935	12.718	0.392193	0.623797
12.7939	12.7175	0.394364	0.623783
12.7944	12.7171	0.394739	0.620785
12.7949	12.7166	0.393157	0.617337
12.7954	12.7161	0.393265	0.60619
12.7958	12.7156	0.392052	0.592841
12.7963	12.7151	0.393966	0.581895
12.7968	12.7147	0.393725	0.572447
12.7972	12.7142	0.391547	0.56313
12.7977	12.7137	0.392277	0.553152
12.7982	12.7132	0.391513	0.540999
12.7987	12.7128	0.392474	0.529566
12.7991	12.7123	0.392506	0.520035
12.7996	12.7118	0.392982	0.510188
12.8001	12.7114	0.39173	0.495451
12.8006	12.7109	0.391336	0.480244
12.801	12.7104	0.39441	0.467336
12.8015	12.7099	0.393322	0.453589
12.802	12.7095	0.393814	0.437658
12.8024	12.709	0.3912	0.419652
12.8029	12.7086	0.391837	0.401685
12.8034	12.7081	0.391459	0.383778
12.8039	12.7076	0.38954	0.370085
12.8043	12.7071	0.391642	0.356249
12.8048	12.7066	0.389523	0.34013
12.8053	12.7062	0.390772	0.324941
12.8057	12.7057	0.392409	0.314439
12.8062	12.7052	0.390589	0.303615
12.8067	12.7047	0.391282	0.296452
12.8072	12.7042	0.391292	0.288853
12.8076	12.7038	0.389451	0.279755
12.8081	12.7033	0.391649	0.277002
12.8086	12.7028	0.390838	0.276894
12.8091	12.7024	0.391391	0.275717
12.8095	12.7019	0.389872	0.276142
12.81	12.7014	0.390003	0.275802
12.8105	12.701	0.393766	0.281792
12.8109	12.7005	0.393708	0.2874
12.8114	12.7	0.389985	0.289471
12.8119	12.6995	0.390302	0.293155
12.8124	12.6991	0.388517	0.295063
12.8128	12.6986	0.390154	0.301258
12.8133	12.6982	0.389911	0.306439
12.8138	12.6977	0.390774	0.310709
12.8142	12.6972	0.389409	0.312876
12.8147	12.6967	0.38896	0.312092
12.8152	12.6963	0.391498	0.314861
12.8157	12.6958	0.389319	0.317186
12.8161	12.6953	0.389174	0.317611
12.8166	12.6948	0.388381	0.31379
12.8171	12.6943	0.388204	0.309718
12.8176	12.6939	0.390451	0.3071
12.818	12.6934	0.389597	0.303835
12.8185	12.6929	0.388552	0.298942
12.819	12.6925	0.387874	0.292264
12.8194	12.692	0.387473	0.28519
12.8199	12.6916	0.389962	0.281297
12.8204	12.6911	0.389652	0.279085
12.8209	12.6906	0.388051	0.273657
12.8213	12.6901	0.388412	0.271604
12.8218	12.6897	0.389495	0.266533
12.8223	12.6892	0.390874	0.267601
12.8227	12.6887	0.39001	0.269863
12.8232	12.6883	0.389668	0.272524
12.8237	12.6878	0.389805	0.272943
12.8242	12.6873	0.389138	0.274442
12.8246	12.6868	0.390136	0.279048
12.8251	12.6864	0.389253	0.285341
12.8256	12.6859	0.388677	0.289412
12.8261	12.6854	0.388664	0.292536
12.8265	12.6849	0.387659	0.293897
12.827	12.6844	0.389665	0.297964
12.8275	12.684	0.388644	0.303695
12.8279	12.6835	0.388393	0.307448
12.8284	12.683	0.387913	0.309552
12.8289	12.6826	0.386406	0.311954
12.8294	12.6821	0.390661	0.315001
12.8298	12.6816	0.389686	0.31997
12.8303	12.6812	0.388701	0.321943
12.8308	12.6807	0.390891	0.325885
12.8312	12.6802	0.390957	0.326932
12.8317	12.6797	0.392647	0.33019
12.8322	12.6793	0.390173	0.332669
12.8327	12.6788	0.391255	0.335608
12.8331	12.6783	0.392135	0.335617
12.8336	12.6779	0.390151	0.335689
12.8341	12.6774	0.392031	0.337513
12.8346	12.6769	0.392039	0.338908
12.835	12.6764	0.390696	0.338588
12.8355	12.6759	0.391547	0.33792
12.836	12.6755	0.392081	0.33454
12.8364	12.675	0.393	0.334391
12.8369	12.6745	0.393161	0.336386
12.8374	12.674	0.391933	0.335877
12.8379	12.6735	0.390083	0.3331
12.8383	12.6731	0.39214	0.331926
12.8388	12.6726	0.394641	0.331246
12.8393	12.6722	0.392082	0.330302
12.8397	12.6717	0.391191	0.328951
12.8402	12.6712	0.393016	0.326365
12.8407	12.6707	0.393409	0.323746
12.8412	12.6703	0.393538	0.323078
12.8416	12.6698	0.39188	0.322298
12.8421	12.6693	0.391089	0.320301
12.8426	12.6689	0.390961	0.314966
12.8431	12.6684	0.391773	0.312347
12.8435	12.6679	0.391852	0.310375
12.844	12.6675	0.393808	0.309274
12.8445	12.667	0.391644	0.306136
12.8449	12.6665	0.392473	0.303294
12.8454	12.666	0.392097	0.300005
12.8459	12.6656	0.39307	0.298394
12.8464	12.6651	0.393678	0.297781
12.8468	12.6646	0.392712	0.295236
12.8473	12.6641	0.392479	0.291302
12.8478	12.6637	0.393559	0.288793
12.8482	12.6632	0.39134	0.287678
12.8487	12.6627	0.394179	0.286459
12.8492	12.6623	0.392673	0.284605
12.8497	12.6618	0.391747	0.282399
12.8501	12.6613	0.39354	0.280159
12.8506	12.6609	0.39211	0.277276
12.8511	12.6604	0.392159	0.277759
12.8516	12.6599	0.390879	0.275476
12.852	12.6595	0.390905	0.272603
12.8525	12.659	0.391756	0.270543
12.853	12.6585	0.39225	0.2708
12.8534	12.6581	0.391438	0.270907
12.8539	12.6576	0.390913	0.270489
12.8544	12.6571	0.389995	0.269005
12.8549	12.6566	0.393263	0.268376
12.8553	12.6561	0.393443	0.2692
12.8558	12.6557	0.392582	0.272249
12.8563	12.6552	0.39103	0.272685
12.8567	12.6547	0.391462	0.272453
12.8572	12.6542	0.391272	0.273941
12.8577	12.6537	0.39272	0.276315
12.8582	12.6533	0.393928	0.279789
12.8586	12.6528	0.391767	0.281932
12.8591	12.6524	0.392952	0.283141
12.8596	12.6519	0.393286	0.284373
12.8601	12.6514	0.394641	0.287706
12.8605	12.6509	0.393224	0.292639
12.861	12.6505	0.392225	0.292914
12.8615	12.65	0.392366	0.295089
12.8619	12.6495	0.391725	0.296399
12.8624	12.6491	0.393053	0.299596
12.8629	12.6486	0.392464	0.303325
12.8634	12.6481	0.390007	0.305031
12.8638	12.6476	0.390149	0.303528
12.8643	12.6472	0.39073	0.305905
12.8648	12.6467	0.388071	0.307998
12.8652	12.6462	0.389646	0.309915
12.8657	12.6457	0.386986	0.311401
12.8662	12.6452	0.387841	0.310039
12.8667	12.6448	0.389338	0.311686
12.8671	12.6443	0.391083	0.314244
12.8676	12.6438	0.389906	0.315405
12.8681	12.6433	0.388289	0.316907
12.8686	12.6429	0.389831	0.31662
12.869	12.6424	0.390515	0.316336
12.8695	12.642	0.390016	0.318303
12.87	12.6415	0.392499	0.320334
12.8704	12.641	0.389842	0.319877
12.8709	12.6405	0.390553	0.317286
12.8714	12.6401	0.391608	0.317592
12.8719	12.6396	0.391975	0.317309
12.8723	12.6391	0.392836	0.318882
12.8728	12.6387	0.388506	0.318263
12.8733	12.6382	0.390445	0.316569
12.8737	12.6377	0.391046	0.316162
12.8742	12.6373	0.390654	0.314924
12.8747	12.6368	0.391737	0.316142
12.8752	12.6363	0.390553	0.31344
12.8756	12.6358	0.390136	0.312736
12.8761	12.6354	0.390653	0.311393
12.8766	12.6349	0.391199	0.311306
12.8771	12.6344	0.390907	0.311837
12.8775	12.6339	0.388428	0.311574
12.878	12.6335	0.388887	0.309566
12.8785	12.633	0.390439	0.308614
12.8789	12.6325	0.389455	0.309593
12.8794	12.6321	0.390276	0.311735
12.8799	12.6316	0.389914	0.31098
12.8804	12.6311	0.389884	0.308759
12.8808	12.6306	0.391083	0.308892
12.8813	12.6302	0.389958	0.310991
12.8818	12.6297	0.390299	0.31156
12.8822	12.6292	0.387889	0.311484
12.8827	12.6288	0.388223	0.310812
12.8832	12.6283	0.389211	0.310277
12.8837	12.6278	0.388857	0.31087
12.8841	12.6273	0.388997	0.311408
12.8846	12.6269	0.387492	0.310353
12.8851	12.6264	0.387213	0.308233
12.8856	12.6259	0.388347	0.307403
12.886	12.6254	0.388871	0.308046
12.8865	12.625	0.388527	0.3088
12.887	12.6245	0.387841	0.307652
12.8874	12.624	0.387306	0.30484
12.8879	12.6235	0.388569	0.304552
12.8884	12.6231	0.389222	0.304684
12.8889	12.6226	0.386685	0.305114
12.8893	12.6221	0.387448	0.303576
12.8898	12.6217	0.387304	0.301479
12.8903	12.6212	0.389405	0.302114
12.8907	12.6207	0.386612	0.301707
12.8912	12.6202	0.386011	0.301674
12.8917	12.6197	0.38589	0.300974
12.8922	12.6193	0.386091	0.299932
12.8926	12.6188	0.387049	0.300267
12.8931	12.6184	0.387233	0.300226
12.8936	12.6179	0.386244	0.301873
12.8941	12.6174	0.386181	0.300506
12.8945	12.6169	0.385875	0.298262
12.895	12.6164	0.38525	0.298877
12.8955	12.616	0.387263	0.299578
12.8959	12.6155	0.386528	0.303011
12.8964	12.615	0.385497	0.299769
12.8969	12.6145	0.383474	0.296733
12.8974	12.6141	0.38672	0.29682
12.8978	12.6136	0.385873	0.297994
12.8983	12.6131	0.385502	0.298509
12.8988	12.6127	0.384308	0.297466
