# 1304     AichiSR QXAFS
# Start     : 8.9544
# End       : 9.0544
# Dir       : Backward
# Points    : 300
# ScanTime  : 1.01549
# Date      : 13.04.23 22:28
# Ring Cur. : 25.5[mA]
12.7557	12.6118	0.292874	0.224219
12.7562	12.6122	0.291418	0.225624
12.7566	12.6127	0.293828	0.225988
12.7571	12.6132	0.295367	0.226182
12.7576	12.6136	0.294392	0.226705
12.7581	12.6141	0.295649	0.229529
12.7585	12.6146	0.295697	0.231072
12.759	12.6151	0.293663	0.228571
12.7595	12.6155	0.294227	0.228175
12.7599	12.616	0.295418	0.230386
12.7604	12.6165	0.296017	0.230976
12.7609	12.617	0.293392	0.230912
12.7614	12.6174	0.294513	0.228817
12.7618	12.6179	0.295415	0.230498
12.7623	12.6184	0.296229	0.229894
12.7628	12.6189	0.29741	0.231899
12.7632	12.6193	0.296645	0.232633
12.7637	12.6198	0.296684	0.231795
12.7642	12.6203	0.298072	0.231006
12.7647	12.6207	0.299642	0.232645
12.7651	12.6212	0.298108	0.234789
12.7656	12.6217	0.295726	0.232975
12.7661	12.6222	0.296843	0.232376
12.7666	12.6226	0.299093	0.232653
12.767	12.6231	0.298392	0.23456
12.7675	12.6236	0.297374	0.23591
12.768	12.624	0.297762	0.236396
12.7684	12.6245	0.29832	0.235166
12.7689	12.625	0.297986	0.235088
12.7694	12.6255	0.300114	0.237721
12.7699	12.626	0.300541	0.240462
12.7703	12.6264	0.298364	0.24004
12.7708	12.6269	0.298504	0.237791
12.7713	12.6274	0.300393	0.23995
12.7717	12.6279	0.299029	0.239264
12.7722	12.6283	0.300627	0.241724
12.7727	12.6288	0.299965	0.241858
12.7732	12.6293	0.299601	0.240424
12.7736	12.6297	0.30022	0.239874
12.7741	12.6302	0.300805	0.240578
12.7746	12.6307	0.302311	0.242411
12.7751	12.6312	0.299489	0.240609
12.7755	12.6316	0.301365	0.240295
12.776	12.6321	0.302967	0.239633
12.7765	12.6326	0.300895	0.240967
12.7769	12.633	0.302847	0.242653
12.7774	12.6335	0.304326	0.24284
12.7779	12.634	0.30306	0.240223
12.7784	12.6344	0.302269	0.241396
12.7788	12.6349	0.302426	0.243026
12.7793	12.6354	0.305821	0.245467
12.7798	12.6359	0.302189	0.243071
12.7802	12.6363	0.302366	0.242143
12.7807	12.6368	0.303898	0.2434
12.7812	12.6373	0.303154	0.244388
12.7817	12.6378	0.303295	0.247364
12.7821	12.6382	0.303847	0.246402
12.7826	12.6387	0.303391	0.245435
12.7831	12.6392	0.306741	0.24699
12.7836	12.6396	0.306952	0.250527
12.784	12.6401	0.303259	0.249962
12.7845	12.6406	0.303663	0.24865
12.785	12.641	0.30513	0.249019
12.7854	12.6415	0.30773	0.249198
12.7859	12.642	0.302894	0.248828
12.7864	12.6424	0.304615	0.250744
12.7869	12.6429	0.304942	0.250558
12.7873	12.6434	0.301822	0.245211
12.7878	12.6438	0.306717	0.247065
12.7883	12.6443	0.303243	0.248706
12.7887	12.6448	0.304525	0.247353
12.7892	12.6453	0.301737	0.244962
12.7897	12.6457	0.305268	0.244334
12.7902	12.6462	0.306431	0.244293
12.7906	12.6467	0.304105	0.242651
12.7911	12.6472	0.305348	0.244462
12.7916	12.6477	0.306309	0.242421
12.7921	12.6481	0.305932	0.239803
12.7925	12.6486	0.30915	0.238407
12.793	12.6491	0.305791	0.238505
12.7935	12.6495	0.306193	0.23711
12.7939	12.65	0.306577	0.235753
12.7944	12.6505	0.307628	0.232396
12.7949	12.651	0.308243	0.230276
12.7954	12.6515	0.307603	0.229691
12.7958	12.6519	0.309383	0.230269
12.7963	12.6524	0.310163	0.22782
12.7968	12.6529	0.3077	0.223914
12.7972	12.6533	0.310844	0.222771
12.7977	12.6538	0.310002	0.222612
12.7982	12.6543	0.311006	0.222736
12.7987	12.6547	0.309876	0.220375
12.7991	12.6552	0.310289	0.216349
12.7996	12.6557	0.312115	0.217341
12.8001	12.6562	0.310164	0.216281
12.8006	12.6567	0.309538	0.214441
12.801	12.6571	0.310177	0.214426
12.8015	12.6576	0.309314	0.21318
12.802	12.6581	0.311684	0.212315
12.8024	12.6586	0.309999	0.214449
12.8029	12.659	0.311759	0.21735
12.8034	12.6595	0.310743	0.217132
12.8039	12.6599	0.310074	0.216105
12.8043	12.6604	0.313582	0.218419
12.8048	12.6609	0.311125	0.220167
12.8053	12.6614	0.312399	0.222557
12.8057	12.6618	0.313027	0.223994
12.8062	12.6623	0.311371	0.221717
12.8067	12.6628	0.313185	0.225185
12.8072	12.6632	0.314455	0.228887
12.8076	12.6637	0.312415	0.231122
12.8081	12.6642	0.31146	0.230039
12.8086	12.6646	0.312606	0.232188
12.8091	12.6651	0.314441	0.235267
12.8095	12.6656	0.313363	0.23653
12.81	12.6661	0.313698	0.239484
12.8105	12.6665	0.313938	0.240706
12.8109	12.667	0.312521	0.240393
12.8114	12.6675	0.314073	0.243425
12.8119	12.668	0.313466	0.24759
12.8124	12.6684	0.312905	0.248491
12.8128	12.6689	0.312282	0.249306
12.8133	12.6694	0.312449	0.251368
12.8138	12.6698	0.314386	0.253195
12.8142	12.6703	0.3138	0.255608
12.8147	12.6708	0.313837	0.259437
12.8152	12.6712	0.314269	0.261941
12.8157	12.6717	0.312405	0.259412
12.8161	12.6722	0.315141	0.26299
12.8166	12.6726	0.31597	0.267027
12.8171	12.6731	0.315535	0.267171
12.8176	12.6736	0.313608	0.266467
12.818	12.6741	0.31464	0.266435
12.8185	12.6745	0.317926	0.269216
12.819	12.675	0.314086	0.269772
12.8194	12.6755	0.313799	0.272071
12.8199	12.676	0.315313	0.271745
12.8204	12.6765	0.313302	0.2702
12.8209	12.6769	0.313982	0.270796
12.8213	12.6774	0.314604	0.274024
12.8218	12.6779	0.316062	0.274934
12.8223	12.6784	0.312624	0.271442
12.8227	12.6788	0.313816	0.270099
12.8232	12.6793	0.31878	0.270393
12.8237	12.6798	0.315106	0.269884
12.8242	12.6802	0.316049	0.268369
12.8246	12.6807	0.317372	0.266947
12.8251	12.6812	0.314464	0.263631
12.8256	12.6817	0.315558	0.261482
12.8261	12.6821	0.317229	0.260652
12.8265	12.6826	0.314282	0.257246
12.827	12.6831	0.313583	0.253285
12.8275	12.6835	0.314294	0.250273
12.8279	12.684	0.316222	0.248997
12.8284	12.6845	0.313874	0.248215
12.8289	12.685	0.315142	0.246337
12.8294	12.6854	0.315336	0.243529
12.8298	12.6859	0.314501	0.237486
12.8303	12.6864	0.315301	0.236928
12.8308	12.6869	0.317929	0.233649
12.8312	12.6874	0.316916	0.230639
12.8317	12.6878	0.316874	0.225644
12.8322	12.6883	0.315351	0.223196
12.8327	12.6888	0.317463	0.220429
12.8331	12.6892	0.31534	0.218617
12.8336	12.6897	0.315493	0.219312
12.8341	12.6902	0.317286	0.218621
12.8346	12.6906	0.314678	0.218922
12.835	12.6911	0.316541	0.220161
12.8355	12.6916	0.317115	0.224623
12.836	12.6921	0.315136	0.229926
12.8364	12.6925	0.316813	0.231518
12.8369	12.693	0.317135	0.235887
12.8374	12.6934	0.31651	0.241443
12.8379	12.6939	0.316909	0.246472
12.8383	12.6944	0.317166	0.252442
12.8388	12.6948	0.316633	0.252272
12.8393	12.6953	0.314532	0.252157
12.8397	12.6958	0.316641	0.255412
12.8402	12.6963	0.318632	0.258143
12.8407	12.6968	0.316497	0.258756
12.8412	12.6972	0.314275	0.255979
12.8416	12.6977	0.317168	0.25386
12.8421	12.6982	0.316241	0.252888
12.8426	12.6986	0.313779	0.249711
12.8431	12.6991	0.315808	0.248239
12.8435	12.6996	0.317337	0.244547
12.844	12.7	0.314384	0.2383
12.8445	12.7005	0.316154	0.234056
12.8449	12.701	0.31732	0.233179
12.8454	12.7015	0.315581	0.230862
12.8459	12.7019	0.314713	0.226153
12.8464	12.7024	0.315176	0.222618
12.8468	12.7029	0.317592	0.222399
12.8473	12.7033	0.315159	0.223082
12.8478	12.7038	0.31548	0.225425
12.8482	12.7043	0.316494	0.227142
12.8487	12.7048	0.316141	0.229428
12.8492	12.7052	0.317463	0.235087
12.8497	12.7057	0.319338	0.245968
12.8501	12.7062	0.316316	0.254516
12.8506	12.7067	0.31626	0.259731
12.8511	12.7072	0.318318	0.271656
12.8516	12.7077	0.318494	0.282737
12.852	12.7081	0.317514	0.295028
12.8525	12.7086	0.317378	0.309421
12.853	12.7091	0.317976	0.322844
12.8534	12.7095	0.317188	0.332802
12.8539	12.71	0.317938	0.345992
12.8544	12.7105	0.318523	0.362415
12.8549	12.7109	0.316339	0.378038
12.8553	12.7114	0.318541	0.386563
12.8558	12.7119	0.317155	0.397338
12.8563	12.7124	0.318904	0.409382
12.8567	12.7128	0.317648	0.419028
12.8572	12.7133	0.31863	0.429134
12.8577	12.7138	0.319401	0.437111
12.8582	12.7142	0.318113	0.442655
12.8586	12.7147	0.317501	0.449631
12.8591	12.7152	0.31823	0.462324
12.8596	12.7157	0.317696	0.470999
12.8601	12.7161	0.31859	0.477122
12.8605	12.7166	0.319944	0.484892
12.861	12.7171	0.318704	0.492179
12.8615	12.7176	0.316818	0.498121
12.8619	12.718	0.318192	0.506725
12.8624	12.7185	0.317136	0.505814
12.8629	12.719	0.314452	0.500819
12.8634	12.7194	0.317263	0.49865
12.8638	12.7199	0.318008	0.497913
12.8643	12.7204	0.31573	0.493798
12.8648	12.7208	0.314474	0.489036
12.8652	12.7213	0.317189	0.492405
12.8657	12.7218	0.318136	0.501354
12.8662	12.7223	0.316095	0.512915
12.8667	12.7227	0.316623	0.536586
12.8671	12.7232	0.317531	0.566769
12.8676	12.7236	0.315361	0.605308
12.8681	12.7241	0.314545	0.65174
12.8686	12.7246	0.31198	0.703516
12.869	12.7251	0.312647	0.753139
12.8695	12.7255	0.310734	0.791974
12.87	12.726	0.313783	0.826539
12.8704	12.7265	0.314994	0.854245
12.8709	12.727	0.314793	0.873032
12.8714	12.7274	0.316042	0.893144
12.8719	12.7279	0.31502	0.899045
12.8723	12.7284	0.314625	0.902029
12.8728	12.7289	0.315268	0.914533
12.8733	12.7293	0.317563	0.923556
12.8737	12.7298	0.313742	0.925417
12.8742	12.7303	0.314455	0.927154
12.8747	12.7307	0.316404	0.932651
12.8752	12.7312	0.317175	0.933714
12.8756	12.7317	0.314681	0.93605
12.8761	12.7322	0.314763	0.943666
12.8766	12.7326	0.316496	0.945826
12.8771	12.7331	0.316107	0.941826
12.8775	12.7336	0.315109	0.943364
12.878	12.734	0.318124	0.949786
12.8785	12.7345	0.316924	0.954692
12.8789	12.735	0.315351	0.946287
12.8794	12.7355	0.317398	0.951796
12.8799	12.736	0.317905	0.955263
12.8804	12.7365	0.316956	0.956103
12.8808	12.7369	0.316482	0.957554
12.8813	12.7374	0.315382	0.952913
12.8818	12.7379	0.31735	0.955213
12.8822	12.7384	0.314811	0.953266
12.8827	12.7388	0.316669	0.957877
12.8832	12.7393	0.316486	0.961325
12.8837	12.7398	0.315912	0.958644
12.8841	12.7402	0.317476	0.960325
12.8846	12.7407	0.317695	0.959088
12.8851	12.7412	0.318054	0.961814
12.8856	12.7417	0.3191	0.968502
12.886	12.7421	0.318788	0.965598
12.8865	12.7426	0.319475	0.965747
12.887	12.743	0.317844	0.964945
12.8874	12.7435	0.319346	0.965779
12.8879	12.744	0.317502	0.966192
12.8884	12.7445	0.317139	0.960232
12.8889	12.7449	0.318871	0.967466
12.8893	12.7454	0.31799	0.966038
12.8898	12.7459	0.317673	0.964382
12.8903	12.7464	0.318298	0.970635
12.8907	12.7468	0.318082	0.968845
12.8912	12.7473	0.321881	0.972509
12.8917	12.7478	0.322501	0.980208
12.8922	12.7483	0.322113	0.980123
12.8926	12.7487	0.320005	0.978894
12.8931	12.7492	0.319094	0.971223
12.8936	12.7497	0.321906	0.974725
12.8941	12.7501	0.32057	0.974437
12.8945	12.7506	0.319028	0.974043
12.895	12.7511	0.317841	0.971923
12.8955	12.7515	0.319156	0.972408
12.8959	12.752	0.319255	0.970327
12.8964	12.7525	0.3167	0.969335
12.8969	12.7529	0.319751	0.97378
12.8974	12.7534	0.318309	0.973698
12.8978	12.7539	0.316807	0.970026
12.8983	12.7543	0.321787	0.975984
12.8988	12.7548	0.320615	0.974985
