# 1304     AichiSR QXAFS
# Start     : 8.9544
# End       : 9.0544
# Dir       : Forward
# Points    : 300
# ScanTime  : 1.01549
# Date      : 13.04.23 22:27
# Ring Cur. : 25.4[mA]
12.7557	12.7557	0.397635	1.20913
12.7562	12.7553	0.39718	1.21304
12.7566	12.7548	0.395668	1.20879
12.7571	12.7543	0.396191	1.20588
12.7576	12.7538	0.397099	1.20498
12.7581	12.7534	0.396549	1.20494
12.7585	12.7529	0.397666	1.20957
12.759	12.7524	0.394555	1.20843
12.7595	12.752	0.395121	1.2045
12.7599	12.7515	0.396308	1.20562
12.7604	12.751	0.397491	1.20637
12.7609	12.7506	0.395882	1.2073
12.7614	12.7501	0.395406	1.205
12.7618	12.7496	0.395884	1.20128
12.7623	12.7492	0.396016	1.19964
12.7628	12.7487	0.395937	1.20145
12.7632	12.7482	0.396201	1.20364
12.7637	12.7478	0.395427	1.20563
12.7642	12.7473	0.393891	1.19765
12.7647	12.7468	0.395418	1.19915
12.7651	12.7463	0.394616	1.20148
12.7656	12.7459	0.394545	1.20288
12.7661	12.7454	0.391976	1.20067
12.7666	12.7449	0.394234	1.1986
12.767	12.7444	0.396936	1.20135
12.7675	12.744	0.398358	1.21442
12.768	12.7435	0.396619	1.2045
12.7684	12.743	0.393359	1.20033
12.7689	12.7426	0.392525	1.19427
12.7694	12.7421	0.393955	1.19463
12.7699	12.7416	0.393651	1.19418
12.7703	12.7412	0.394001	1.19558
12.7708	12.7407	0.393103	1.19549
12.7713	12.7402	0.394546	1.19304
12.7717	12.7397	0.395517	1.18832
12.7722	12.7393	0.39266	1.19068
12.7727	12.7388	0.39438	1.19262
12.7732	12.7383	0.393212	1.18974
12.7736	12.7379	0.393261	1.18599
12.7741	12.7374	0.394677	1.18848
12.7746	12.7369	0.393872	1.18782
12.7751	12.7364	0.394374	1.18783
12.7755	12.736	0.393333	1.18734
12.776	12.7355	0.392944	1.18282
12.7765	12.735	0.393833	1.18308
12.7769	12.7345	0.393445	1.18181
12.7774	12.734	0.393908	1.18066
12.7779	12.7335	0.393974	1.18076
12.7784	12.7331	0.392346	1.17198
12.7788	12.7326	0.393537	1.1735
12.7793	12.7321	0.391959	1.17305
12.7798	12.7317	0.394621	1.1722
12.7802	12.7312	0.39372	1.17092
12.7807	12.7307	0.394154	1.16777
12.7812	12.7302	0.39465	1.16346
12.7817	12.7298	0.394009	1.1614
12.7821	12.7293	0.395358	1.16017
12.7826	12.7288	0.393569	1.15155
12.7831	12.7284	0.393081	1.14358
12.7836	12.7279	0.39366	1.13195
12.784	12.7274	0.392488	1.12581
12.7845	12.727	0.393399	1.11718
12.785	12.7265	0.391974	1.09998
12.7854	12.726	0.391133	1.07606
12.7859	12.7255	0.391249	1.04687
12.7864	12.7251	0.39041	1.01388
12.7869	12.7246	0.389315	0.971116
12.7873	12.7241	0.388825	0.915415
12.7878	12.7236	0.390069	0.852185
12.7883	12.7232	0.394149	0.790121
12.7887	12.7227	0.394105	0.738361
12.7892	12.7222	0.394747	0.689521
12.7897	12.7218	0.392866	0.653556
12.7902	12.7213	0.393941	0.627496
12.7906	12.7208	0.395953	0.615662
12.7911	12.7203	0.393159	0.612049
12.7916	12.7199	0.394021	0.611793
12.7921	12.7194	0.39332	0.614603
12.7925	12.719	0.392462	0.617388
12.793	12.7185	0.3944	0.622847
12.7935	12.718	0.395394	0.628327
12.7939	12.7176	0.394624	0.630098
12.7944	12.7171	0.394109	0.625696
12.7949	12.7166	0.396225	0.618646
12.7954	12.7161	0.396565	0.609624
12.7958	12.7157	0.395252	0.600153
12.7963	12.7152	0.395503	0.588162
12.7968	12.7147	0.394593	0.577855
12.7972	12.7142	0.39431	0.563365
12.7977	12.7137	0.395243	0.553819
12.7982	12.7133	0.396259	0.546568
12.7987	12.7128	0.396572	0.53818
12.7991	12.7123	0.395208	0.526795
12.7996	12.7119	0.39495	0.511741
12.8001	12.7114	0.397265	0.499258
12.8006	12.7109	0.395404	0.488397
12.801	12.7104	0.396471	0.475034
12.8015	12.71	0.396621	0.458518
12.802	12.7095	0.395332	0.438808
12.8024	12.709	0.397049	0.424474
12.8029	12.7086	0.39664	0.409273
12.8034	12.7081	0.39532	0.391809
12.8039	12.7076	0.394537	0.376242
12.8043	12.7071	0.394516	0.35944
12.8048	12.7067	0.396076	0.343615
12.8053	12.7062	0.396258	0.331895
12.8057	12.7057	0.395948	0.322632
12.8062	12.7052	0.396118	0.310471
12.8067	12.7047	0.395389	0.298786
12.8072	12.7043	0.396658	0.291599
12.8076	12.7038	0.395197	0.286395
12.8081	12.7033	0.396555	0.282402
12.8086	12.7029	0.39597	0.280969
12.8091	12.7024	0.39498	0.277943
12.8095	12.7019	0.396342	0.278383
12.81	12.7015	0.394941	0.280659
12.8105	12.701	0.396298	0.285184
12.8109	12.7005	0.396138	0.289116
12.8114	12.7	0.396014	0.290811
12.8119	12.6996	0.397487	0.296033
12.8124	12.6991	0.398063	0.301159
12.8128	12.6986	0.396026	0.307195
12.8133	12.6982	0.39583	0.310935
12.8138	12.6977	0.396722	0.312764
12.8142	12.6972	0.396725	0.316673
12.8147	12.6968	0.39524	0.317787
12.8152	12.6963	0.395807	0.321808
12.8157	12.6958	0.395248	0.322562
12.8161	12.6953	0.395652	0.319998
12.8166	12.6948	0.396842	0.319809
12.8171	12.6944	0.397228	0.319177
12.8176	12.6939	0.395716	0.316165
12.818	12.6934	0.394743	0.308812
12.8185	12.693	0.395342	0.303308
12.819	12.6925	0.3972	0.298223
12.8194	12.692	0.395236	0.292738
12.8199	12.6916	0.395202	0.287522
12.8204	12.6911	0.395076	0.282058
12.8209	12.6906	0.393738	0.276719
12.8213	12.6901	0.396659	0.273723
12.8218	12.6897	0.39668	0.272677
12.8223	12.6892	0.394855	0.272286
12.8227	12.6888	0.393715	0.271708
12.8232	12.6883	0.394082	0.272418
12.8237	12.6878	0.395701	0.275812
12.8242	12.6874	0.394461	0.281032
12.8246	12.6869	0.393891	0.284385
12.8251	12.6864	0.394648	0.286988
12.8256	12.6859	0.392254	0.290893
12.8261	12.6854	0.394498	0.294606
12.8265	12.6849	0.393132	0.301931
12.827	12.6845	0.393194	0.304128
12.8275	12.684	0.393876	0.307626
12.8279	12.6835	0.393563	0.309006
12.8284	12.6831	0.392399	0.311366
12.8289	12.6826	0.393966	0.315758
12.8294	12.6821	0.393963	0.319553
12.8298	12.6817	0.394412	0.321769
12.8303	12.6812	0.392648	0.322973
12.8308	12.6807	0.395205	0.325788
12.8312	12.6802	0.396262	0.331439
12.8317	12.6797	0.393427	0.333377
12.8322	12.6793	0.395747	0.335932
12.8327	12.6788	0.394491	0.337577
12.8331	12.6784	0.394393	0.338201
12.8336	12.6779	0.394547	0.340434
12.8341	12.6774	0.3924	0.341208
12.8346	12.6769	0.39341	0.339412
12.835	12.6764	0.394595	0.339241
12.8355	12.676	0.396349	0.338588
12.836	12.6755	0.394759	0.340353
12.8364	12.675	0.393305	0.33886
12.8369	12.6745	0.393443	0.337187
12.8374	12.674	0.394678	0.335848
12.8379	12.6736	0.395825	0.334399
12.8383	12.6731	0.395535	0.334994
12.8388	12.6726	0.394006	0.333266
12.8393	12.6722	0.39382	0.330968
12.8397	12.6717	0.393391	0.328602
12.8402	12.6712	0.393879	0.326589
12.8407	12.6708	0.395089	0.32851
12.8412	12.6703	0.393792	0.324804
12.8416	12.6698	0.392696	0.322029
12.8421	12.6694	0.393496	0.317593
12.8426	12.6689	0.393731	0.315948
12.8431	12.6684	0.394272	0.31456
12.8435	12.668	0.39392	0.312271
12.844	12.6675	0.392647	0.308344
12.8445	12.667	0.392348	0.305355
12.8449	12.6665	0.394828	0.303843
12.8454	12.6661	0.393844	0.303649
12.8459	12.6656	0.391896	0.298803
12.8464	12.6651	0.394006	0.297898
12.8468	12.6646	0.393941	0.293202
12.8473	12.6642	0.39336	0.292313
12.8478	12.6637	0.392639	0.290516
12.8482	12.6632	0.392295	0.28907
12.8487	12.6628	0.39232	0.286963
12.8492	12.6623	0.392763	0.283168
12.8497	12.6618	0.391484	0.281616
12.8501	12.6614	0.392358	0.281667
12.8506	12.6609	0.392273	0.278338
12.8511	12.6604	0.391178	0.27601
12.8516	12.6599	0.391982	0.273819
12.852	12.6595	0.392823	0.272415
12.8525	12.659	0.391622	0.272239
12.853	12.6586	0.390044	0.271447
12.8534	12.6581	0.389488	0.269375
12.8539	12.6576	0.390274	0.268238
12.8544	12.6571	0.390809	0.267504
12.8549	12.6567	0.392701	0.268463
12.8553	12.6562	0.389112	0.269891
12.8558	12.6557	0.388868	0.269521
12.8563	12.6552	0.391048	0.271109
12.8567	12.6547	0.39151	0.271623
12.8572	12.6543	0.391615	0.275747
12.8577	12.6538	0.391478	0.276801
12.8582	12.6533	0.390434	0.277339
12.8586	12.6528	0.391797	0.279046
12.8591	12.6524	0.391931	0.281937
12.8596	12.6519	0.389679	0.285516
12.8601	12.6514	0.389705	0.287236
12.8605	12.651	0.39005	0.289104
12.861	12.6505	0.389989	0.290517
12.8615	12.65	0.392024	0.293917
12.8619	12.6495	0.391368	0.29715
12.8624	12.6491	0.388526	0.298424
12.8629	12.6486	0.389971	0.300825
12.8634	12.6481	0.3902	0.301884
12.8638	12.6477	0.388365	0.304218
12.8643	12.6472	0.388831	0.305947
12.8648	12.6467	0.385514	0.307602
12.8652	12.6462	0.38483	0.307921
12.8657	12.6457	0.387573	0.307654
12.8662	12.6453	0.38527	0.308702
12.8667	12.6448	0.386264	0.311734
12.8671	12.6443	0.385611	0.312313
12.8676	12.6438	0.387705	0.313184
12.8681	12.6434	0.386866	0.313341
12.8686	12.6429	0.388674	0.315311
12.869	12.6424	0.38803	0.316779
12.8695	12.642	0.387051	0.317441
12.87	12.6415	0.388677	0.317826
12.8704	12.641	0.389619	0.315486
12.8709	12.6406	0.390297	0.316471
12.8714	12.6401	0.389636	0.317361
12.8719	12.6396	0.387882	0.316497
12.8723	12.6392	0.389054	0.31464
12.8728	12.6387	0.388988	0.31492
12.8733	12.6382	0.388819	0.314235
12.8737	12.6378	0.389674	0.315335
12.8742	12.6373	0.387653	0.314255
12.8747	12.6368	0.388207	0.311795
12.8752	12.6363	0.38807	0.310776
12.8756	12.6359	0.387347	0.310913
12.8761	12.6354	0.388198	0.31242
12.8766	12.6349	0.386462	0.310472
12.8771	12.6344	0.387401	0.308602
12.8775	12.634	0.389227	0.307229
12.878	12.6335	0.388145	0.308387
12.8785	12.633	0.386352	0.310064
12.8789	12.6326	0.385629	0.308904
12.8794	12.6321	0.387172	0.307501
12.8799	12.6316	0.386737	0.306321
12.8804	12.6312	0.387668	0.307572
12.8808	12.6307	0.385072	0.309744
12.8813	12.6302	0.385503	0.309195
12.8818	12.6297	0.386584	0.309542
12.8822	12.6293	0.387528	0.307492
12.8827	12.6288	0.387216	0.310064
12.8832	12.6283	0.38625	0.308661
12.8837	12.6279	0.384634	0.309501
12.8841	12.6274	0.385647	0.307879
12.8846	12.6269	0.387523	0.307587
12.8851	12.6264	0.384918	0.30765
12.8856	12.6259	0.386214	0.307909
12.886	12.6255	0.384924	0.307746
12.8865	12.625	0.385462	0.305289
12.887	12.6245	0.38596	0.303674
12.8874	12.624	0.383375	0.302917
12.8879	12.6235	0.38543	0.304912
12.8884	12.6231	0.384121	0.302904
12.8889	12.6226	0.383225	0.301003
12.8893	12.6221	0.386693	0.300567
12.8898	12.6217	0.385003	0.300777
12.8903	12.6212	0.383696	0.300012
12.8907	12.6207	0.382722	0.300032
12.8912	12.6202	0.383102	0.297749
12.8917	12.6198	0.385011	0.296449
12.8922	12.6193	0.385202	0.298
12.8926	12.6188	0.384232	0.298533
12.8931	12.6184	0.381874	0.298026
12.8936	12.6179	0.382433	0.296111
12.8941	12.6174	0.386722	0.297368
12.8945	12.617	0.383123	0.297536
12.895	12.6165	0.381222	0.297914
12.8955	12.616	0.381858	0.29719
12.8959	12.6155	0.381381	0.295375
12.8964	12.615	0.38291	0.295063
12.8969	12.6146	0.382997	0.296732
12.8974	12.6141	0.382082	0.29755
12.8978	12.6136	0.381362	0.295266
12.8983	12.6132	0.380389	0.291706
12.8988	12.6127	0.382406	0.293014
