# 1304     AichiSR QXAFS
# Start     : 8.9544
# End       : 9.0544
# Dir       : Backward
# Points    : 300
# ScanTime  : 1.01549
# Date      : 13.04.23 22:20
# Ring Cur. : 25.5[mA]
12.7557	12.6117	0.29974	0.228675
12.7562	12.6122	0.30028	0.230196
12.7566	12.6126	0.297986	0.231279
12.7571	12.6131	0.29874	0.229318
12.7576	12.6136	0.29796	0.229395
12.7581	12.614	0.298409	0.230952
12.7585	12.6145	0.302676	0.235427
12.759	12.615	0.29864	0.23332
12.7595	12.6155	0.298723	0.231381
12.7599	12.616	0.300693	0.232489
12.7604	12.6164	0.302805	0.234619
12.7609	12.6169	0.301909	0.235205
12.7614	12.6174	0.3017	0.23518
12.7618	12.6179	0.301288	0.234699
12.7623	12.6183	0.299627	0.232182
12.7628	12.6188	0.301188	0.233782
12.7632	12.6193	0.302336	0.236725
12.7637	12.6197	0.301239	0.235942
12.7642	12.6202	0.297751	0.231058
12.7647	12.6207	0.300546	0.233615
12.7651	12.6212	0.302039	0.235264
12.7656	12.6216	0.300931	0.235578
12.7661	12.6221	0.300558	0.23693
12.7666	12.6226	0.299834	0.234031
12.767	12.623	0.301246	0.233899
12.7675	12.6235	0.299635	0.236385
12.768	12.624	0.303	0.240136
12.7684	12.6245	0.300295	0.238075
12.7689	12.6249	0.298996	0.235449
12.7694	12.6254	0.301971	0.238821
12.7699	12.6259	0.300193	0.23872
12.7703	12.6264	0.299396	0.240921
12.7708	12.6268	0.300808	0.242708
12.7713	12.6273	0.299413	0.240168
12.7717	12.6278	0.298593	0.239473
12.7722	12.6283	0.300756	0.241317
12.7727	12.6287	0.302294	0.242895
12.7732	12.6292	0.3017	0.242698
12.7736	12.6297	0.29912	0.239298
12.7741	12.6301	0.301853	0.240552
12.7746	12.6306	0.300802	0.241133
12.7751	12.6311	0.30063	0.241968
12.7755	12.6316	0.301705	0.242881
12.776	12.632	0.299692	0.23808
12.7765	12.6325	0.301115	0.240227
12.7769	12.633	0.301574	0.240902
12.7774	12.6334	0.30202	0.24199
12.7779	12.6339	0.300786	0.242133
12.7784	12.6344	0.30068	0.239732
12.7788	12.6348	0.304447	0.240993
12.7793	12.6353	0.302226	0.242159
12.7798	12.6358	0.302347	0.24294
12.7802	12.6363	0.304155	0.243689
12.7807	12.6368	0.301755	0.241172
12.7812	12.6372	0.303986	0.243193
12.7817	12.6377	0.3052	0.247968
12.7821	12.6382	0.303331	0.246545
12.7826	12.6386	0.30315	0.246366
12.7831	12.6391	0.300252	0.244067
12.7836	12.6396	0.303585	0.246634
12.784	12.64	0.303225	0.246828
12.7845	12.6405	0.301615	0.246937
12.785	12.641	0.303861	0.248291
12.7854	12.6415	0.30272	0.247677
12.7859	12.6419	0.3051	0.247335
12.7864	12.6424	0.302567	0.247187
12.7869	12.6428	0.303587	0.248055
12.7873	12.6433	0.303802	0.247341
12.7878	12.6438	0.300903	0.244667
12.7883	12.6442	0.302055	0.244204
12.7887	12.6447	0.30081	0.244547
12.7892	12.6452	0.30037	0.244708
12.7897	12.6457	0.302615	0.243151
12.7902	12.6462	0.301348	0.240488
12.7906	12.6466	0.301777	0.239455
12.7911	12.6471	0.302622	0.241281
12.7916	12.6476	0.305896	0.243502
12.7921	12.6481	0.303846	0.240439
12.7925	12.6486	0.301659	0.236221
12.793	12.649	0.30649	0.23595
12.7935	12.6495	0.306385	0.236237
12.7939	12.65	0.30351	0.234076
12.7944	12.6504	0.305868	0.233868
12.7949	12.6509	0.306552	0.229658
12.7954	12.6514	0.306245	0.22737
12.7958	12.6519	0.305316	0.225907
12.7963	12.6523	0.308874	0.226888
12.7968	12.6528	0.308805	0.224904
12.7972	12.6533	0.306909	0.221029
12.7977	12.6537	0.30872	0.220315
12.7982	12.6542	0.310016	0.220645
12.7987	12.6547	0.309608	0.220198
12.7991	12.6552	0.308979	0.21732
12.7996	12.6556	0.308972	0.214606
12.8001	12.6561	0.308324	0.213024
12.8006	12.6566	0.308094	0.214254
12.801	12.6571	0.310534	0.215054
12.8015	12.6576	0.309231	0.212964
12.802	12.658	0.308407	0.212586
12.8024	12.6585	0.311135	0.213557
12.8029	12.659	0.309639	0.214486
12.8034	12.6594	0.310102	0.216713
12.8039	12.6599	0.310698	0.216676
12.8043	12.6604	0.31068	0.217072
12.8048	12.6608	0.310021	0.218009
12.8053	12.6613	0.311084	0.220648
12.8057	12.6618	0.312466	0.223761
12.8062	12.6623	0.313179	0.223873
12.8067	12.6627	0.310362	0.22357
12.8072	12.6632	0.31438	0.226845
12.8076	12.6636	0.311671	0.228526
12.8081	12.6641	0.313281	0.232003
12.8086	12.6646	0.312974	0.232899
12.8091	12.6651	0.312869	0.232261
12.8095	12.6655	0.312744	0.235259
12.81	12.666	0.3139	0.238047
12.8105	12.6665	0.31355	0.242799
12.8109	12.667	0.312404	0.242034
12.8114	12.6674	0.313293	0.242975
12.8119	12.6679	0.316323	0.245343
12.8124	12.6684	0.313708	0.24632
12.8128	12.6689	0.313761	0.252006
12.8133	12.6693	0.31523	0.252804
12.8138	12.6698	0.313441	0.252223
12.8142	12.6702	0.314998	0.253655
12.8147	12.6707	0.314616	0.258677
12.8152	12.6712	0.316718	0.262995
12.8157	12.6717	0.315875	0.262381
12.8161	12.6721	0.312826	0.261451
12.8166	12.6726	0.315397	0.263312
12.8171	12.6731	0.316248	0.266815
12.8176	12.6735	0.314189	0.268696
12.818	12.674	0.314541	0.268594
12.8185	12.6745	0.316745	0.269869
12.819	12.675	0.31676	0.269503
12.8194	12.6754	0.314359	0.270113
12.8199	12.6759	0.316028	0.273512
12.8204	12.6764	0.31745	0.273003
12.8209	12.6769	0.314571	0.272046
12.8213	12.6774	0.316299	0.272433
12.8218	12.6778	0.316222	0.274424
12.8223	12.6783	0.31615	0.2748
12.8227	12.6788	0.318304	0.2738
12.8232	12.6792	0.317897	0.272011
12.8237	12.6797	0.317406	0.271468
12.8242	12.6802	0.317395	0.269724
12.8246	12.6807	0.317745	0.269981
12.8251	12.6811	0.317582	0.265754
12.8256	12.6816	0.317216	0.261869
12.8261	12.6821	0.31958	0.262757
12.8265	12.6825	0.317382	0.259162
12.827	12.683	0.314126	0.256168
12.8275	12.6835	0.317193	0.254195
12.8279	12.684	0.31804	0.251326
12.8284	12.6844	0.31645	0.248476
12.8289	12.6849	0.315827	0.246848
12.8294	12.6854	0.318541	0.247664
12.8298	12.6859	0.317099	0.241939
12.8303	12.6863	0.318253	0.237981
12.8308	12.6868	0.319403	0.234943
12.8312	12.6873	0.317547	0.232615
12.8317	12.6878	0.317941	0.228905
12.8322	12.6883	0.32049	0.226952
12.8327	12.6887	0.321191	0.223541
12.8331	12.6892	0.318413	0.220539
12.8336	12.6896	0.320763	0.220092
12.8341	12.6901	0.320651	0.22268
12.8346	12.6906	0.318844	0.222203
12.835	12.6911	0.318771	0.221784
12.8355	12.6915	0.321456	0.226036
12.836	12.692	0.319594	0.231353
12.8364	12.6925	0.318437	0.233939
12.8369	12.6929	0.320791	0.238406
12.8374	12.6934	0.320366	0.243802
12.8379	12.6938	0.319246	0.247323
12.8383	12.6943	0.319336	0.25153
12.8388	12.6948	0.32013	0.255676
12.8393	12.6953	0.319167	0.256022
12.8397	12.6958	0.319587	0.258392
12.8402	12.6962	0.321145	0.259211
12.8407	12.6967	0.318421	0.260032
12.8412	12.6972	0.317892	0.25992
12.8416	12.6977	0.321774	0.258717
12.8421	12.6981	0.320596	0.255061
12.8426	12.6986	0.31826	0.252105
12.8431	12.699	0.319882	0.250462
12.8435	12.6995	0.32038	0.247813
12.844	12.7	0.319504	0.242156
12.8445	12.7004	0.31958	0.238294
12.8449	12.7009	0.321509	0.236453
12.8454	12.7014	0.318925	0.233517
12.8459	12.7019	0.317878	0.228313
12.8464	12.7023	0.318898	0.226164
12.8468	12.7028	0.321759	0.224965
12.8473	12.7033	0.319515	0.225585
12.8478	12.7037	0.31928	0.226706
12.8482	12.7042	0.321224	0.231182
12.8487	12.7047	0.320287	0.233245
12.8492	12.7052	0.321683	0.239077
12.8497	12.7057	0.321405	0.246802
12.8501	12.7062	0.321944	0.255621
12.8506	12.7066	0.318653	0.263446
12.8511	12.7071	0.321942	0.273558
12.8516	12.7076	0.32333	0.287112
12.852	12.7081	0.320702	0.295721
12.8525	12.7085	0.321234	0.310011
12.853	12.709	0.322773	0.326803
12.8534	12.7095	0.321718	0.336223
12.8539	12.7099	0.322494	0.349348
12.8544	12.7104	0.321988	0.364592
12.8549	12.7109	0.322843	0.379779
12.8553	12.7114	0.320131	0.389215
12.8558	12.7118	0.321719	0.401421
12.8563	12.7123	0.32244	0.414481
12.8567	12.7128	0.321096	0.42156
12.8572	12.7132	0.321393	0.432545
12.8577	12.7137	0.320655	0.441618
12.8582	12.7142	0.322048	0.446916
12.8586	12.7146	0.322727	0.454603
12.8591	12.7151	0.322876	0.463988
12.8596	12.7156	0.322158	0.474767
12.8601	12.7161	0.320703	0.481676
12.8605	12.7166	0.321913	0.489636
12.861	12.717	0.322598	0.497988
12.8615	12.7175	0.320327	0.502837
12.8619	12.718	0.322417	0.513813
12.8624	12.7185	0.321933	0.514132
12.8629	12.7189	0.319063	0.50664
12.8634	12.7194	0.321225	0.505122
12.8638	12.7198	0.323915	0.50641
12.8643	12.7203	0.32247	0.499933
12.8648	12.7208	0.319124	0.496852
12.8652	12.7213	0.319805	0.498096
12.8657	12.7217	0.3238	0.505677
12.8662	12.7222	0.319636	0.512839
12.8667	12.7227	0.318375	0.537276
12.8671	12.7231	0.320822	0.570257
12.8676	12.7236	0.318999	0.605785
12.8681	12.7241	0.319025	0.652947
12.8686	12.7245	0.318959	0.707107
12.869	12.725	0.315486	0.755065
12.8695	12.7255	0.315581	0.795148
12.87	12.726	0.319664	0.835187
12.8704	12.7264	0.32071	0.864278
12.8709	12.7269	0.318897	0.882847
12.8714	12.7274	0.318598	0.899594
12.8719	12.7279	0.320513	0.919179
12.8723	12.7283	0.319224	0.91718
12.8728	12.7288	0.32221	0.929154
12.8733	12.7293	0.322261	0.936506
12.8737	12.7297	0.319973	0.937716
12.8742	12.7302	0.31887	0.940127
12.8747	12.7307	0.321203	0.948938
12.8752	12.7312	0.323152	0.951835
12.8756	12.7316	0.318818	0.946821
12.8761	12.7321	0.320596	0.955513
12.8766	12.7326	0.322342	0.963307
12.8771	12.733	0.322428	0.961519
12.8775	12.7335	0.322854	0.961704
12.878	12.734	0.323192	0.968881
12.8785	12.7345	0.322754	0.967689
12.8789	12.7349	0.3208	0.967909
12.8794	12.7354	0.321916	0.966037
12.8799	12.7359	0.325241	0.971111
12.8804	12.7364	0.321032	0.967523
12.8808	12.7369	0.321805	0.967226
12.8813	12.7373	0.322865	0.973972
12.8818	12.7378	0.320841	0.97207
12.8822	12.7383	0.323588	0.973241
12.8827	12.7388	0.324345	0.978706
12.8832	12.7392	0.323809	0.977043
12.8837	12.7397	0.321873	0.978635
12.8841	12.7402	0.325551	0.985199
12.8846	12.7406	0.325885	0.985241
12.8851	12.7411	0.323025	0.977722
12.8856	12.7416	0.322583	0.981266
12.886	12.7421	0.325184	0.986439
12.8865	12.7425	0.323491	0.977767
12.887	12.743	0.325962	0.984108
12.8874	12.7435	0.32329	0.982114
12.8879	12.7439	0.321642	0.980344
12.8884	12.7444	0.32243	0.981521
12.8889	12.7449	0.325255	0.985931
12.8893	12.7454	0.325957	0.986059
12.8898	12.7458	0.32351	0.983962
12.8903	12.7463	0.325107	0.991363
12.8907	12.7468	0.325127	0.988923
12.8912	12.7473	0.324827	0.98804
12.8917	12.7477	0.329548	0.995345
12.8922	12.7482	0.326601	0.996045
12.8926	12.7487	0.324987	0.989424
12.8931	12.7491	0.322064	0.987174
12.8936	12.7496	0.326003	0.990104
12.8941	12.7501	0.327384	0.988469
12.8945	12.7505	0.325386	0.987152
12.895	12.751	0.323343	0.986303
12.8955	12.7515	0.325328	0.98778
12.8959	12.752	0.322812	0.989494
12.8964	12.7524	0.327853	0.997133
12.8969	12.7529	0.326833	0.993696
12.8974	12.7533	0.325056	0.994657
12.8978	12.7538	0.325096	0.99111
12.8983	12.7543	0.326417	0.996989
12.8988	12.7548	0.328283	0.996808
