# 1304     AichiSR QXAFS
# Start     : 8.9544
# End       : 9.0544
# Dir       : Backward
# Points    : 300
# ScanTime  : 1.01549
# Date      : 13.04.23 22:20
# Ring Cur. : 25.6[mA]
12.7557	12.6117	0.297864	0.229832
12.7562	12.6122	0.296834	0.228488
12.7566	12.6126	0.299741	0.227829
12.7571	12.6131	0.301734	0.231564
12.7576	12.6136	0.29928	0.231518
12.7581	12.614	0.298863	0.232805
12.7585	12.6145	0.301281	0.234617
12.759	12.615	0.29956	0.233095
12.7595	12.6155	0.301601	0.233435
12.7599	12.616	0.303598	0.236056
12.7604	12.6164	0.302128	0.236698
12.7609	12.6169	0.301012	0.232865
12.7614	12.6174	0.30297	0.233675
12.7618	12.6179	0.303057	0.235271
12.7623	12.6183	0.300546	0.23583
12.7628	12.6188	0.301855	0.236914
12.7632	12.6193	0.301856	0.234507
12.7637	12.6197	0.300832	0.233088
12.7642	12.6202	0.300815	0.233744
12.7647	12.6207	0.303712	0.236308
12.7651	12.6212	0.303192	0.236415
12.7656	12.6216	0.299268	0.234071
12.7661	12.6221	0.301824	0.235723
12.7666	12.6226	0.302741	0.236988
12.767	12.623	0.304347	0.239661
12.7675	12.6235	0.302171	0.238903
12.768	12.624	0.301997	0.238334
12.7684	12.6245	0.302591	0.238013
12.7689	12.6249	0.302467	0.238884
12.7694	12.6254	0.303339	0.242118
12.7699	12.6259	0.301564	0.240734
12.7703	12.6264	0.301676	0.240531
12.7708	12.6268	0.302126	0.240945
12.7713	12.6273	0.30459	0.242966
12.7717	12.6278	0.302501	0.243323
12.7722	12.6283	0.30343	0.24406
12.7727	12.6287	0.301863	0.242395
12.7732	12.6292	0.302158	0.241628
12.7736	12.6297	0.303111	0.242876
12.7741	12.6301	0.30446	0.245028
12.7746	12.6306	0.303902	0.244875
12.7751	12.6311	0.300652	0.240903
12.7755	12.6316	0.303141	0.24257
12.776	12.632	0.302683	0.241985
12.7765	12.6325	0.305378	0.243011
12.7769	12.633	0.301776	0.243059
12.7774	12.6334	0.303596	0.241663
12.7779	12.6339	0.303753	0.241466
12.7784	12.6344	0.303304	0.242217
12.7788	12.6348	0.303954	0.245692
12.7793	12.6353	0.303749	0.2447
12.7798	12.6358	0.304305	0.242514
12.7802	12.6363	0.306643	0.245077
12.7807	12.6368	0.303953	0.245776
12.7812	12.6372	0.304001	0.246256
12.7817	12.6377	0.305914	0.247842
12.7821	12.6382	0.305592	0.246702
12.7826	12.6386	0.305901	0.245544
12.7831	12.6391	0.304156	0.246183
12.7836	12.6396	0.305835	0.24994
12.784	12.64	0.302716	0.24891
12.7845	12.6405	0.30197	0.245606
12.785	12.641	0.305743	0.247441
12.7854	12.6415	0.306393	0.249676
12.7859	12.6419	0.304026	0.249649
12.7864	12.6424	0.306503	0.251727
12.7869	12.6428	0.30585	0.249423
12.7873	12.6433	0.305829	0.248637
12.7878	12.6438	0.303374	0.247485
12.7883	12.6442	0.305519	0.248787
12.7887	12.6447	0.304045	0.247509
12.7892	12.6452	0.302508	0.244121
12.7897	12.6457	0.304495	0.243963
12.7902	12.6462	0.304267	0.243186
12.7906	12.6466	0.303027	0.242688
12.7911	12.6471	0.305414	0.243948
12.7916	12.6476	0.305418	0.241978
12.7921	12.6481	0.305351	0.240099
12.7925	12.6486	0.305234	0.23925
12.793	12.649	0.307626	0.239475
12.7935	12.6495	0.306459	0.238286
12.7939	12.6499	0.305732	0.234132
12.7944	12.6504	0.306667	0.232207
12.7949	12.6509	0.306398	0.231762
12.7954	12.6514	0.306109	0.230025
12.7958	12.6519	0.307221	0.228815
12.7963	12.6523	0.307544	0.225391
12.7968	12.6528	0.306429	0.223343
12.7972	12.6533	0.307669	0.221352
12.7977	12.6537	0.30724	0.219603
12.7982	12.6542	0.309403	0.220548
12.7987	12.6547	0.30759	0.217059
12.7991	12.6552	0.309322	0.215704
12.7996	12.6556	0.307816	0.214933
12.8001	12.6561	0.310133	0.21652
12.8006	12.6566	0.309874	0.215756
12.801	12.6571	0.309861	0.213209
12.8015	12.6576	0.310097	0.212163
12.802	12.658	0.30789	0.212781
12.8024	12.6585	0.307423	0.214175
12.8029	12.659	0.308524	0.214915
12.8034	12.6594	0.307907	0.212645
12.8039	12.6599	0.309423	0.213959
12.8043	12.6604	0.308411	0.216666
12.8048	12.6608	0.307911	0.217912
12.8053	12.6613	0.309365	0.220752
12.8057	12.6618	0.309846	0.220409
12.8062	12.6622	0.310534	0.221943
12.8067	12.6627	0.30933	0.223839
12.8072	12.6632	0.310954	0.226355
12.8076	12.6636	0.310058	0.227243
12.8081	12.6641	0.310477	0.228034
12.8086	12.6646	0.311102	0.229431
12.8091	12.6651	0.309499	0.230575
12.8095	12.6655	0.309293	0.235104
12.81	12.666	0.310494	0.236742
12.8105	12.6665	0.310689	0.237162
12.8109	12.667	0.309397	0.237871
12.8114	12.6674	0.309088	0.240798
12.8119	12.6679	0.311358	0.244625
12.8124	12.6684	0.309019	0.245001
12.8128	12.6688	0.307532	0.243715
12.8133	12.6693	0.313052	0.250086
12.8138	12.6698	0.310204	0.251607
12.8142	12.6702	0.308433	0.253946
12.8147	12.6707	0.307931	0.254451
12.8152	12.6712	0.312056	0.258044
12.8157	12.6717	0.310421	0.256263
12.8161	12.6721	0.311043	0.260211
12.8166	12.6726	0.311675	0.263228
12.8171	12.6731	0.310362	0.264087
12.8176	12.6735	0.309427	0.262259
12.818	12.674	0.311038	0.263461
12.8185	12.6745	0.31181	0.266004
12.819	12.675	0.309583	0.264509
12.8194	12.6754	0.310148	0.267606
12.8199	12.6759	0.312117	0.266877
12.8204	12.6764	0.312319	0.268188
12.8209	12.6769	0.310146	0.269758
12.8213	12.6774	0.311322	0.270477
12.8218	12.6778	0.310294	0.269934
12.8223	12.6783	0.309843	0.267813
12.8227	12.6788	0.313238	0.268158
12.8232	12.6792	0.310772	0.267244
12.8237	12.6797	0.310169	0.265621
12.8242	12.6802	0.309957	0.265146
12.8246	12.6807	0.311052	0.262555
12.8251	12.6811	0.314026	0.261322
12.8256	12.6816	0.311979	0.259353
12.8261	12.6821	0.31123	0.258603
12.8265	12.6825	0.312277	0.254535
12.827	12.683	0.310325	0.250893
12.8275	12.6835	0.312925	0.249276
12.8279	12.6839	0.310959	0.247015
12.8284	12.6844	0.30982	0.24553
12.8289	12.6849	0.308944	0.242705
12.8294	12.6854	0.311409	0.239337
12.8298	12.6859	0.311191	0.235901
12.8303	12.6863	0.312161	0.232574
12.8308	12.6868	0.311192	0.231254
12.8312	12.6873	0.311398	0.228002
12.8317	12.6878	0.310927	0.223147
12.8322	12.6883	0.313479	0.221271
12.8327	12.6887	0.312142	0.218063
12.8331	12.6892	0.312644	0.218282
12.8336	12.6896	0.313263	0.216485
12.8341	12.6901	0.312507	0.214827
12.8346	12.6906	0.314114	0.215016
12.835	12.6911	0.313243	0.219189
12.8355	12.6915	0.312366	0.222757
12.836	12.692	0.311559	0.225682
12.8364	12.6924	0.312829	0.228294
12.8369	12.6929	0.315416	0.234277
12.8374	12.6934	0.31414	0.238457
12.8379	12.6938	0.31471	0.244202
12.8383	12.6943	0.313417	0.247388
12.8388	12.6948	0.314909	0.250626
12.8393	12.6953	0.314352	0.251826
12.8397	12.6957	0.313025	0.253478
12.8402	12.6962	0.314729	0.258467
12.8407	12.6967	0.314222	0.255521
12.8412	12.6972	0.313916	0.252567
12.8416	12.6977	0.316393	0.253012
12.8421	12.6981	0.31646	0.253725
12.8426	12.6986	0.313923	0.250425
12.8431	12.699	0.314263	0.24606
12.8435	12.6995	0.315219	0.242404
12.844	12.7	0.315845	0.23759
12.8445	12.7004	0.313782	0.236327
12.8449	12.7009	0.315503	0.233667
12.8454	12.7014	0.316001	0.229035
12.8459	12.7019	0.312713	0.224478
12.8464	12.7023	0.317175	0.224131
12.8468	12.7028	0.316677	0.223952
12.8473	12.7033	0.314929	0.222676
12.8478	12.7037	0.3169	0.224932
12.8482	12.7042	0.31935	0.226741
12.8487	12.7047	0.317611	0.23085
12.8492	12.7052	0.317145	0.2367
12.8497	12.7057	0.316901	0.244722
12.8501	12.7062	0.316839	0.251997
12.8506	12.7066	0.317537	0.259734
12.8511	12.7071	0.318429	0.271237
12.8516	12.7076	0.316919	0.283187
12.852	12.7081	0.316416	0.295099
12.8525	12.7085	0.316766	0.30756
12.853	12.709	0.319458	0.320833
12.8534	12.7095	0.31966	0.334329
12.8539	12.7099	0.318006	0.348907
12.8544	12.7104	0.319763	0.362781
12.8549	12.7109	0.320385	0.375819
12.8553	12.7114	0.31883	0.386086
12.8558	12.7118	0.320579	0.399594
12.8563	12.7123	0.321137	0.411907
12.8567	12.7128	0.320084	0.421095
12.8572	12.7132	0.318972	0.428069
12.8577	12.7137	0.321682	0.43789
12.8582	12.7142	0.320692	0.444762
12.8586	12.7146	0.318044	0.45171
12.8591	12.7151	0.31984	0.464232
12.8596	12.7156	0.318473	0.470423
12.8601	12.7161	0.318444	0.476518
12.8605	12.7166	0.321551	0.489752
12.861	12.717	0.321636	0.500616
12.8615	12.7175	0.319599	0.505348
12.8619	12.718	0.320364	0.507723
12.8624	12.7185	0.322397	0.510337
12.8629	12.7189	0.320265	0.506348
12.8634	12.7194	0.318691	0.504258
12.8638	12.7198	0.31919	0.503115
12.8643	12.7203	0.31867	0.497658
12.8648	12.7208	0.319927	0.493432
12.8652	12.7213	0.320052	0.498464
12.8657	12.7217	0.319975	0.505323
12.8662	12.7222	0.317609	0.516487
12.8667	12.7227	0.319575	0.535953
12.8671	12.7231	0.319265	0.56912
12.8676	12.7236	0.318502	0.608751
12.8681	12.7241	0.319131	0.657402
12.8686	12.7245	0.316792	0.709377
12.869	12.725	0.316517	0.751951
12.8695	12.7255	0.316869	0.795169
12.87	12.726	0.31889	0.834964
12.8704	12.7264	0.318026	0.861215
12.8709	12.7269	0.316289	0.880857
12.8714	12.7274	0.318932	0.897244
12.8719	12.7279	0.321588	0.914326
12.8723	12.7283	0.320497	0.917305
12.8728	12.7288	0.319926	0.927493
12.8733	12.7293	0.319882	0.933924
12.8737	12.7297	0.320853	0.937919
12.8742	12.7302	0.320316	0.940878
12.8747	12.7307	0.322638	0.948424
12.8752	12.7312	0.322757	0.954339
12.8756	12.7316	0.320791	0.954392
12.8761	12.7321	0.320385	0.952723
12.8766	12.7326	0.322723	0.962441
12.8771	12.733	0.323838	0.964926
12.8775	12.7335	0.321077	0.962404
12.878	12.734	0.320921	0.968248
12.8785	12.7345	0.323001	0.965486
12.8789	12.7349	0.32158	0.965652
12.8794	12.7354	0.322022	0.969124
12.8799	12.7359	0.324372	0.974192
12.8804	12.7364	0.322069	0.970589
12.8808	12.7369	0.322413	0.970133
12.8813	12.7373	0.324814	0.979593
12.8818	12.7378	0.323403	0.974739
12.8822	12.7383	0.322632	0.973461
12.8827	12.7388	0.321745	0.981081
12.8832	12.7392	0.324495	0.980541
12.8837	12.7397	0.32509	0.976997
12.8841	12.7402	0.325599	0.984171
12.8846	12.7406	0.326088	0.987068
12.8851	12.7411	0.323974	0.984603
12.8856	12.7416	0.324478	0.982538
12.886	12.7421	0.326323	0.985858
12.8865	12.7425	0.325391	0.987382
12.887	12.743	0.325633	0.986191
12.8874	12.7435	0.323453	0.991936
12.8879	12.7439	0.32456	0.984317
12.8884	12.7444	0.324888	0.985803
12.8889	12.7449	0.327005	0.988606
12.8893	12.7454	0.324926	0.988763
12.8898	12.7458	0.324786	0.990968
12.8903	12.7463	0.324966	0.990003
12.8907	12.7468	0.32742	0.995309
12.8912	12.7473	0.326052	0.99166
12.8917	12.7477	0.326789	0.992461
12.8922	12.7482	0.326953	0.999092
12.8926	12.7487	0.32613	0.994366
12.8931	12.7491	0.326461	0.991449
12.8936	12.7496	0.325957	0.996755
12.8941	12.7501	0.326108	0.992987
12.8945	12.7505	0.324892	0.993894
12.895	12.751	0.325041	0.992539
12.8955	12.7515	0.328557	0.999167
12.8959	12.752	0.32546	0.991922
12.8964	12.7524	0.327325	0.995323
12.8969	12.7529	0.32634	1.00087
12.8974	12.7533	0.326342	0.99344
12.8978	12.7538	0.328592	0.997419
12.8983	12.7543	0.329271	0.998022
12.8988	12.7547	0.327974	1.00012
