# 1304     AichiSR QXAFS
# Start     : 8.9544
# End       : 9.0544
# Dir       : Backward
# Points    : 300
# ScanTime  : 1.01549
# Date      : 13.04.23 22:21
# Ring Cur. : 25.5[mA]
12.7557	12.6117	0.304605	0.232271
12.7562	12.6122	0.303467	0.233194
12.7566	12.6127	0.302568	0.23367
12.7571	12.6131	0.302562	0.233231
12.7576	12.6136	0.305392	0.233781
12.7581	12.6141	0.303518	0.234816
12.7585	12.6145	0.306158	0.23851
12.759	12.615	0.30429	0.235787
12.7595	12.6155	0.304033	0.236118
12.7599	12.616	0.307672	0.23711
12.7604	12.6164	0.306414	0.239951
12.7609	12.6169	0.306644	0.239437
12.7614	12.6174	0.305125	0.23841
12.7618	12.6179	0.306006	0.237916
12.7623	12.6183	0.306931	0.237222
12.7628	12.6188	0.305261	0.238583
12.7632	12.6193	0.305834	0.240246
12.7637	12.6197	0.304456	0.237975
12.7642	12.6202	0.302802	0.235961
12.7647	12.6207	0.306031	0.237244
12.7651	12.6212	0.306467	0.238766
12.7656	12.6217	0.303071	0.238269
12.7661	12.6221	0.306013	0.240997
12.7666	12.6226	0.304894	0.237692
12.767	12.623	0.30686	0.2395
12.7675	12.6235	0.306007	0.241258
12.768	12.624	0.30829	0.243837
12.7684	12.6245	0.304909	0.241929
12.7689	12.6249	0.303051	0.240346
12.7694	12.6254	0.308727	0.243743
12.7699	12.6259	0.30495	0.242975
12.7703	12.6264	0.304063	0.244116
12.7708	12.6269	0.303134	0.243435
12.7713	12.6273	0.303602	0.243485
12.7717	12.6278	0.30414	0.243491
12.7722	12.6283	0.30527	0.244632
12.7727	12.6288	0.305016	0.245489
12.7732	12.6292	0.303719	0.245289
12.7736	12.6297	0.304542	0.244189
12.7741	12.6301	0.307849	0.244853
12.7746	12.6306	0.306989	0.245835
12.7751	12.6311	0.307172	0.247702
12.7755	12.6316	0.306896	0.246483
12.776	12.6321	0.305383	0.242924
12.7765	12.6325	0.308443	0.244712
12.7769	12.633	0.306358	0.245048
12.7774	12.6334	0.306299	0.244809
12.7779	12.6339	0.304231	0.243494
12.7784	12.6344	0.304399	0.242463
12.7788	12.6349	0.309958	0.244586
12.7793	12.6353	0.308874	0.247904
12.7798	12.6358	0.306874	0.247503
12.7802	12.6363	0.305933	0.247934
12.7807	12.6368	0.306919	0.245736
12.7812	12.6372	0.307063	0.246231
12.7817	12.6377	0.30887	0.249538
12.7821	12.6382	0.30824	0.251378
12.7826	12.6386	0.308719	0.250674
12.7831	12.6391	0.304308	0.248041
12.7836	12.6396	0.308335	0.249547
12.784	12.64	0.308735	0.251108
12.7845	12.6405	0.307167	0.251775
12.785	12.641	0.307864	0.250853
12.7854	12.6415	0.306481	0.24942
12.7859	12.6419	0.306868	0.249318
12.7864	12.6424	0.306747	0.25134
12.7869	12.6428	0.307959	0.253505
12.7873	12.6433	0.308307	0.250385
12.7878	12.6438	0.306637	0.248803
12.7883	12.6442	0.309108	0.250409
12.7887	12.6447	0.308153	0.249198
12.7892	12.6452	0.304721	0.247326
12.7897	12.6457	0.306817	0.248194
12.7902	12.6462	0.308101	0.24587
12.7906	12.6467	0.307456	0.243351
12.7911	12.6471	0.306046	0.243724
12.7916	12.6476	0.308684	0.245915
12.7921	12.6481	0.309263	0.242845
12.7925	12.6486	0.307653	0.240072
12.793	12.649	0.309614	0.239995
12.7935	12.6495	0.311772	0.239772
12.7939	12.65	0.311341	0.238755
12.7944	12.6504	0.312372	0.236889
12.7949	12.6509	0.312475	0.233728
12.7954	12.6514	0.313632	0.232569
12.7958	12.6519	0.314914	0.232678
12.7963	12.6523	0.313984	0.231955
12.7968	12.6528	0.314113	0.226714
12.7972	12.6533	0.312007	0.224912
12.7977	12.6537	0.31496	0.224385
12.7982	12.6542	0.311821	0.223448
12.7987	12.6547	0.310943	0.220238
12.7991	12.6552	0.313067	0.21971
12.7996	12.6556	0.313006	0.217446
12.8001	12.6561	0.313297	0.217494
12.8006	12.6566	0.314903	0.216745
12.801	12.6571	0.315087	0.220048
12.8015	12.6576	0.316427	0.218551
12.802	12.658	0.315773	0.216818
12.8024	12.6585	0.317798	0.217275
12.8029	12.659	0.31646	0.218826
12.8034	12.6594	0.314856	0.219561
12.8039	12.6599	0.31558	0.21966
12.8043	12.6604	0.314574	0.220044
12.8048	12.6608	0.315798	0.221085
12.8053	12.6613	0.315773	0.224228
12.8057	12.6618	0.316217	0.226478
12.8062	12.6623	0.315448	0.226198
12.8067	12.6627	0.316523	0.227883
12.8072	12.6632	0.319724	0.230618
12.8076	12.6636	0.31777	0.233553
12.8081	12.6641	0.318157	0.235684
12.8086	12.6646	0.319551	0.237782
12.8091	12.6651	0.318967	0.237247
12.8095	12.6655	0.317985	0.238579
12.81	12.666	0.317899	0.243586
12.8105	12.6665	0.318592	0.24624
12.8109	12.667	0.317863	0.244843
12.8114	12.6675	0.316533	0.246119
12.8119	12.6679	0.32125	0.249177
12.8124	12.6684	0.318842	0.25329
12.8128	12.6689	0.316436	0.254495
12.8133	12.6693	0.318694	0.255921
12.8138	12.6698	0.32024	0.257983
12.8142	12.6702	0.320451	0.259677
12.8147	12.6707	0.32039	0.263275
12.8152	12.6712	0.321307	0.266729
12.8157	12.6717	0.319825	0.265704
12.8161	12.6721	0.320096	0.26632
12.8166	12.6726	0.322237	0.269933
12.8171	12.6731	0.320256	0.271581
12.8176	12.6735	0.319916	0.2732
12.818	12.674	0.322112	0.272523
12.8185	12.6745	0.321513	0.272619
12.819	12.675	0.319342	0.273568
12.8194	12.6754	0.322118	0.276257
12.8199	12.6759	0.319889	0.276385
12.8204	12.6764	0.320296	0.276399
12.8209	12.6769	0.321936	0.275207
12.8213	12.6774	0.323099	0.277971
12.8218	12.6778	0.322891	0.279708
12.8223	12.6783	0.321326	0.279198
12.8227	12.6788	0.321966	0.278541
12.8232	12.6792	0.324367	0.277159
12.8237	12.6797	0.323277	0.274567
12.8242	12.6802	0.322278	0.274705
12.8246	12.6807	0.32324	0.274727
12.8251	12.6811	0.321012	0.269825
12.8256	12.6816	0.321835	0.265119
12.8261	12.6821	0.321533	0.263968
12.8265	12.6826	0.321873	0.263346
12.827	12.683	0.319388	0.2602
12.8275	12.6835	0.320454	0.258201
12.8279	12.684	0.320256	0.254554
12.8284	12.6844	0.321152	0.251587
12.8289	12.6849	0.323014	0.251872
12.8294	12.6854	0.324709	0.250618
12.8298	12.6859	0.323203	0.245484
12.8303	12.6864	0.324723	0.239874
12.8308	12.6868	0.324324	0.239861
12.8312	12.6873	0.322756	0.236009
12.8317	12.6878	0.323237	0.233045
12.8322	12.6883	0.324814	0.229332
12.8327	12.6887	0.323606	0.224963
12.8331	12.6892	0.32307	0.221864
12.8336	12.6896	0.324783	0.223649
12.8341	12.6901	0.324947	0.224363
12.8346	12.6906	0.322784	0.223234
12.835	12.6911	0.324387	0.226038
12.8355	12.6915	0.32663	0.229941
12.836	12.692	0.325385	0.23483
12.8364	12.6925	0.324868	0.239521
12.8369	12.6929	0.325335	0.244136
12.8374	12.6934	0.326294	0.2478
12.8379	12.6939	0.32384	0.250054
12.8383	12.6943	0.326249	0.258047
12.8388	12.6948	0.324665	0.260183
12.8393	12.6953	0.323954	0.260874
12.8397	12.6958	0.323985	0.261541
12.8402	12.6962	0.325133	0.263138
12.8407	12.6967	0.32415	0.264115
12.8412	12.6972	0.323518	0.263202
12.8416	12.6977	0.326128	0.261213
12.8421	12.6981	0.325208	0.258415
12.8426	12.6986	0.323895	0.254935
12.8431	12.6991	0.324516	0.255355
12.8435	12.6995	0.326432	0.251244
12.844	12.7	0.325774	0.245788
12.8445	12.7005	0.324693	0.241722
12.8449	12.7009	0.325273	0.238587
12.8454	12.7014	0.324854	0.235993
12.8459	12.7019	0.322794	0.232759
12.8464	12.7023	0.326078	0.22944
12.8468	12.7028	0.326304	0.229288
12.8473	12.7033	0.324629	0.228255
12.8478	12.7037	0.323385	0.229102
12.8482	12.7042	0.325677	0.236068
12.8487	12.7047	0.324873	0.236739
12.8492	12.7052	0.32606	0.242258
12.8497	12.7057	0.327898	0.251327
12.8501	12.7062	0.326045	0.259608
12.8506	12.7066	0.324589	0.268572
12.8511	12.7071	0.32611	0.279461
12.8516	12.7076	0.32878	0.292462
12.852	12.7081	0.326664	0.302957
12.8525	12.7085	0.325907	0.315975
12.853	12.709	0.326516	0.331516
12.8534	12.7095	0.326778	0.342888
12.8539	12.7099	0.326298	0.35649
12.8544	12.7104	0.329249	0.372654
12.8549	12.7109	0.327394	0.386759
12.8553	12.7114	0.326231	0.39532
12.8558	12.7118	0.327263	0.409509
12.8563	12.7123	0.330212	0.421053
12.8567	12.7128	0.326402	0.429533
12.8572	12.7132	0.327258	0.440565
12.8577	12.7137	0.326132	0.44912
12.8582	12.7142	0.326287	0.45527
12.8586	12.7147	0.328014	0.465807
12.8591	12.7151	0.326999	0.475035
12.8596	12.7156	0.326666	0.482657
12.8601	12.7161	0.32434	0.489647
12.8605	12.7166	0.327067	0.500077
12.861	12.717	0.328721	0.509196
12.8615	12.7175	0.325556	0.51319
12.8619	12.718	0.326161	0.519828
12.8624	12.7185	0.327034	0.521777
12.8629	12.7189	0.324518	0.514794
12.8634	12.7194	0.326455	0.513245
12.8638	12.7198	0.327907	0.512537
12.8643	12.7203	0.325893	0.507897
12.8648	12.7208	0.324901	0.504002
12.8652	12.7213	0.326981	0.507894
12.8657	12.7217	0.328972	0.516987
12.8662	12.7222	0.324063	0.526305
12.8667	12.7227	0.32519	0.550498
12.8671	12.7231	0.324488	0.58419
12.8676	12.7236	0.322966	0.618726
12.8681	12.7241	0.324551	0.670982
12.8686	12.7245	0.322153	0.724175
12.869	12.725	0.32044	0.768611
12.8695	12.7255	0.319639	0.809533
12.87	12.726	0.321497	0.851223
12.8704	12.7264	0.325319	0.880975
12.8709	12.7269	0.323989	0.897609
12.8714	12.7274	0.325483	0.917187
12.8719	12.7279	0.326501	0.932373
12.8723	12.7283	0.322776	0.932345
12.8728	12.7288	0.325922	0.943177
12.8733	12.7293	0.328282	0.9542
12.8737	12.7297	0.325672	0.955648
12.8742	12.7302	0.323507	0.953303
12.8747	12.7307	0.326695	0.960016
12.8752	12.7312	0.328472	0.963323
12.8756	12.7316	0.325388	0.963514
12.8761	12.7321	0.325984	0.971002
12.8766	12.7326	0.325707	0.976919
12.8771	12.733	0.325233	0.973441
12.8775	12.7335	0.327033	0.977145
12.878	12.734	0.328741	0.984185
12.8785	12.7345	0.328118	0.986396
12.8789	12.735	0.326579	0.983059
12.8794	12.7354	0.327411	0.983838
12.8799	12.7359	0.329549	0.987303
12.8804	12.7364	0.326756	0.986349
12.8808	12.7369	0.326149	0.987085
12.8813	12.7374	0.326834	0.989998
12.8818	12.7378	0.327156	0.987768
12.8822	12.7383	0.327307	0.985523
12.8827	12.7388	0.329381	0.992242
12.8832	12.7392	0.327366	0.993056
12.8837	12.7397	0.326106	0.991155
12.8841	12.7402	0.329122	0.993209
12.8846	12.7406	0.330158	0.997506
12.8851	12.7411	0.32875	0.994365
12.8856	12.7416	0.328186	0.998175
12.886	12.7421	0.32861	0.999598
12.8865	12.7425	0.328396	0.992612
12.887	12.743	0.329513	0.995843
12.8874	12.7435	0.330716	1.00353
12.8879	12.7439	0.328503	1.00125
12.8884	12.7444	0.328245	0.997576
12.8889	12.7449	0.328293	0.999128
12.8893	12.7454	0.329675	1.00117
12.8898	12.7458	0.328413	0.998072
12.8903	12.7463	0.329277	1.00425
12.8907	12.7468	0.330348	1.0032
12.8912	12.7473	0.327044	0.998548
12.8917	12.7477	0.331368	1.00377
12.8922	12.7482	0.331638	1.00673
12.8926	12.7487	0.33035	1.00809
12.8931	12.7491	0.32963	1.00666
12.8936	12.7496	0.331359	1.0083
12.8941	12.7501	0.331294	1.00526
12.8945	12.7505	0.329831	1.0042
12.895	12.751	0.329345	1.00437
12.8955	12.7515	0.330061	1.00541
12.8959	12.752	0.32988	1.00345
12.8964	12.7524	0.331541	1.00328
12.8969	12.7529	0.33014	1.00279
12.8974	12.7533	0.329424	1.00487
12.8978	12.7538	0.329138	1.00504
12.8983	12.7543	0.32923	1.00566
12.8988	12.7548	0.332493	1.00924
