# 1304     AichiSR QXAFS
# Start     : 8.9544
# End       : 9.0544
# Dir       : Forward
# Points    : 300
# ScanTime  : 1.01549
# Date      : 13.04.23 22:31
# Ring Cur. : 25.7[mA]
12.7557	12.7558	0.403031	1.23665
12.7562	12.7553	0.405058	1.23444
12.7566	12.7548	0.405362	1.23297
12.7571	12.7543	0.406545	1.23452
12.7576	12.7539	0.406073	1.23939
12.7581	12.7534	0.404767	1.23487
12.7585	12.7529	0.405252	1.23546
12.759	12.7525	0.404772	1.23201
12.7595	12.752	0.407457	1.23413
12.7599	12.7516	0.406037	1.23525
12.7604	12.7511	0.404867	1.23615
12.7609	12.7506	0.405336	1.23269
12.7614	12.7501	0.404208	1.23366
12.7618	12.7497	0.407038	1.23435
12.7623	12.7492	0.405285	1.23545
12.7628	12.7487	0.403421	1.23513
12.7632	12.7483	0.404852	1.2337
12.7637	12.7478	0.405196	1.2323
12.7642	12.7473	0.405956	1.23303
12.7647	12.7469	0.405399	1.23578
12.7651	12.7464	0.405534	1.23488
12.7656	12.7459	0.405565	1.22879
12.7661	12.7454	0.404969	1.22983
12.7666	12.7449	0.404967	1.23289
12.767	12.7445	0.406339	1.23434
12.7675	12.744	0.40396	1.2312
12.768	12.7435	0.403533	1.22861
12.7684	12.7431	0.405171	1.22892
12.7689	12.7426	0.406008	1.22662
12.7694	12.7421	0.405187	1.2288
12.7699	12.7417	0.403792	1.23179
12.7703	12.7412	0.404748	1.22666
12.7708	12.7407	0.405253	1.22385
12.7713	12.7402	0.404032	1.22449
12.7717	12.7398	0.406097	1.22851
12.7722	12.7393	0.404479	1.22599
12.7727	12.7388	0.404606	1.22529
12.7732	12.7384	0.406091	1.223
12.7736	12.7379	0.405769	1.22136
12.7741	12.7374	0.404961	1.22165
12.7746	12.7369	0.404501	1.22278
12.7751	12.7365	0.40343	1.2174
12.7755	12.736	0.404167	1.21646
12.776	12.7355	0.405659	1.21763
12.7765	12.735	0.405159	1.21631
12.7769	12.7345	0.403736	1.21408
12.7774	12.7341	0.402931	1.21176
12.7779	12.7336	0.404555	1.20887
12.7784	12.7331	0.403309	1.20726
12.7788	12.7326	0.404802	1.20672
12.7793	12.7322	0.403871	1.20964
12.7798	12.7317	0.40162	1.19885
12.7802	12.7312	0.403251	1.19828
12.7807	12.7308	0.403767	1.19518
12.7812	12.7303	0.404502	1.19456
12.7817	12.7298	0.40091	1.18908
12.7821	12.7293	0.402049	1.18194
12.7826	12.7289	0.402372	1.17549
12.7831	12.7284	0.403834	1.16656
12.7836	12.7279	0.402583	1.16517
12.784	12.7275	0.402162	1.1535
12.7845	12.727	0.40092	1.13582
12.785	12.7265	0.399371	1.12284
12.7854	12.726	0.399962	1.10339
12.7859	12.7256	0.3986	1.0766
12.7864	12.7251	0.396531	1.03986
12.7869	12.7246	0.396258	0.986135
12.7873	12.7241	0.397236	0.931771
12.7878	12.7237	0.397862	0.871675
12.7883	12.7232	0.400011	0.811837
12.7887	12.7227	0.400445	0.753424
12.7892	12.7223	0.401378	0.698893
12.7897	12.7218	0.401746	0.661277
12.7902	12.7213	0.400683	0.641797
12.7906	12.7209	0.401188	0.631207
12.7911	12.7204	0.399354	0.620774
12.7916	12.7199	0.400575	0.619553
12.7921	12.7195	0.402477	0.623488
12.7925	12.719	0.401967	0.626358
12.793	12.7185	0.400811	0.633868
12.7935	12.7181	0.399815	0.637628
12.7939	12.7176	0.400399	0.637301
12.7944	12.7171	0.401026	0.63237
12.7949	12.7166	0.401511	0.630736
12.7954	12.7162	0.400065	0.620744
12.7958	12.7157	0.400646	0.608745
12.7963	12.7152	0.399847	0.594349
12.7968	12.7147	0.401853	0.583757
12.7972	12.7142	0.39978	0.572979
12.7977	12.7138	0.399759	0.565289
12.7982	12.7133	0.399411	0.555446
12.7987	12.7128	0.39763	0.541453
12.7991	12.7124	0.399178	0.530207
12.7996	12.7119	0.400433	0.523467
12.8001	12.7114	0.400148	0.510775
12.8006	12.711	0.399376	0.494395
12.801	12.7105	0.399081	0.47799
12.8015	12.71	0.399523	0.462679
12.802	12.7095	0.400051	0.447714
12.8024	12.7091	0.400911	0.431415
12.8029	12.7086	0.400712	0.415017
12.8034	12.7081	0.398037	0.39513
12.8039	12.7077	0.399466	0.378427
12.8043	12.7072	0.400184	0.363726
12.8048	12.7067	0.399546	0.352245
12.8053	12.7062	0.398221	0.337111
12.8057	12.7057	0.397869	0.322085
12.8062	12.7053	0.399537	0.311176
12.8067	12.7048	0.399666	0.303589
12.8072	12.7043	0.399985	0.297982
12.8076	12.7038	0.399363	0.289557
12.8081	12.7034	0.398837	0.282537
12.8086	12.7029	0.401364	0.280562
12.8091	12.7024	0.399461	0.280927
12.8095	12.702	0.399271	0.282932
12.81	12.7015	0.397419	0.283956
12.8105	12.701	0.397609	0.284673
12.8109	12.7005	0.400698	0.28856
12.8114	12.7001	0.39969	0.2933
12.8119	12.6996	0.398079	0.300002
12.8124	12.6991	0.397847	0.30421
12.8128	12.6987	0.398224	0.307017
12.8133	12.6982	0.397173	0.3104
12.8138	12.6977	0.398316	0.315463
12.8142	12.6973	0.399456	0.320713
12.8147	12.6968	0.398346	0.321832
12.8152	12.6963	0.397755	0.320674
12.8157	12.6958	0.39866	0.322542
12.8161	12.6954	0.39797	0.322766
12.8166	12.6949	0.398525	0.322607
12.8171	12.6944	0.399041	0.320647
12.8176	12.6939	0.395586	0.313084
12.818	12.6935	0.3975	0.309578
12.8185	12.693	0.396717	0.306619
12.819	12.6925	0.396644	0.301052
12.8194	12.6921	0.396266	0.294799
12.8199	12.6916	0.395432	0.287552
12.8204	12.6911	0.398827	0.283124
12.8209	12.6907	0.39728	0.280278
12.8213	12.6902	0.398214	0.277478
12.8218	12.6897	0.398146	0.274271
12.8223	12.6893	0.397047	0.270877
12.8227	12.6888	0.397183	0.272309
12.8232	12.6883	0.397872	0.27493
12.8237	12.6879	0.398301	0.277858
12.8242	12.6874	0.396178	0.279919
12.8246	12.6869	0.39371	0.282563
12.8251	12.6864	0.395973	0.287569
12.8256	12.6859	0.394528	0.292278
12.8261	12.6855	0.395369	0.296536
12.8265	12.685	0.394467	0.300974
12.827	12.6845	0.392364	0.301927
12.8275	12.684	0.395084	0.3064
12.8279	12.6836	0.394012	0.310737
12.8284	12.6831	0.392664	0.312927
12.8289	12.6826	0.392614	0.316515
12.8294	12.6822	0.393983	0.31753
12.8298	12.6817	0.395882	0.321547
12.8303	12.6812	0.394312	0.325288
12.8308	12.6807	0.394989	0.329889
12.8312	12.6803	0.395529	0.330872
12.8317	12.6798	0.394841	0.332559
12.8322	12.6793	0.396119	0.335548
12.8327	12.6789	0.394863	0.338593
12.8331	12.6784	0.393873	0.339897
12.8336	12.6779	0.395287	0.340977
12.8341	12.6774	0.394586	0.339267
12.8346	12.677	0.396434	0.339508
12.835	12.6765	0.396189	0.341521
12.8355	12.676	0.39523	0.341288
12.836	12.6755	0.396026	0.341116
12.8364	12.675	0.394141	0.337994
12.8369	12.6746	0.394724	0.337645
12.8374	12.6741	0.394162	0.337547
12.8379	12.6736	0.393041	0.336957
12.8383	12.6731	0.392777	0.334529
12.8388	12.6727	0.393851	0.331563
12.8393	12.6722	0.394363	0.331109
12.8397	12.6717	0.394608	0.331047
12.8402	12.6713	0.394486	0.330194
12.8407	12.6708	0.39632	0.327128
12.8412	12.6703	0.39288	0.323126
12.8416	12.6699	0.393468	0.321489
12.8421	12.6694	0.396081	0.320629
12.8426	12.6689	0.393534	0.317678
12.8431	12.6685	0.39237	0.314172
12.8435	12.668	0.391506	0.31107
12.844	12.6675	0.393319	0.308563
12.8445	12.6671	0.392509	0.307403
12.8449	12.6666	0.391621	0.305587
12.8454	12.6661	0.392184	0.30294
12.8459	12.6656	0.391279	0.297776
12.8464	12.6651	0.393387	0.295259
12.8468	12.6647	0.392398	0.296393
12.8473	12.6642	0.392444	0.292903
12.8478	12.6637	0.39041	0.289122
12.8482	12.6633	0.39067	0.286229
12.8487	12.6628	0.391816	0.283821
12.8492	12.6623	0.393001	0.283459
12.8497	12.6619	0.391669	0.283949
12.8501	12.6614	0.390952	0.280428
12.8506	12.6609	0.389061	0.276534
12.8511	12.6604	0.391247	0.275616
12.8516	12.66	0.390511	0.274426
12.852	12.6595	0.389632	0.272855
12.8525	12.659	0.389695	0.270342
12.853	12.6586	0.388738	0.269096
12.8534	12.6581	0.389715	0.26754
12.8539	12.6576	0.390449	0.269034
12.8544	12.6572	0.38988	0.26952
12.8549	12.6567	0.39024	0.267426
12.8553	12.6562	0.389813	0.268073
12.8558	12.6557	0.390804	0.269219
12.8563	12.6552	0.391289	0.270958
12.8567	12.6548	0.390207	0.273354
12.8572	12.6543	0.389947	0.27314
12.8577	12.6538	0.389207	0.273805
12.8582	12.6533	0.394017	0.278016
12.8586	12.6529	0.393465	0.281603
12.8591	12.6524	0.388642	0.281918
12.8596	12.6519	0.389584	0.283337
12.8601	12.6515	0.389553	0.285337
12.8605	12.651	0.390296	0.285819
12.861	12.6505	0.39063	0.29195
12.8615	12.65	0.389932	0.294785
12.8619	12.6496	0.388736	0.294865
12.8624	12.6491	0.389342	0.296483
12.8629	12.6486	0.389702	0.297945
12.8634	12.6482	0.390257	0.302785
12.8638	12.6477	0.388861	0.305433
12.8643	12.6472	0.388085	0.304003
12.8648	12.6467	0.387112	0.304
12.8652	12.6463	0.386695	0.306472
12.8657	12.6458	0.38499	0.308183
12.8662	12.6453	0.384124	0.309317
12.8667	12.6448	0.383301	0.308922
12.8671	12.6443	0.384686	0.309742
12.8676	12.6439	0.385902	0.311798
12.8681	12.6434	0.386183	0.31432
12.8686	12.6429	0.388417	0.31528
12.869	12.6425	0.389203	0.315483
12.8695	12.642	0.387772	0.315929
12.87	12.6416	0.389603	0.316211
12.8704	12.6411	0.391367	0.319996
12.8709	12.6406	0.389197	0.318309
12.8714	12.6401	0.389055	0.316678
12.8719	12.6397	0.391629	0.314871
12.8723	12.6392	0.390202	0.31597
12.8728	12.6387	0.388163	0.316475
12.8733	12.6383	0.387687	0.315949
12.8737	12.6378	0.389945	0.315275
12.8742	12.6373	0.390193	0.314336
12.8747	12.6368	0.389361	0.312999
12.8752	12.6364	0.389854	0.314301
12.8756	12.6359	0.388891	0.313694
12.8761	12.6354	0.388437	0.312896
12.8766	12.6349	0.39013	0.310279
12.8771	12.6345	0.390338	0.312684
12.8775	12.634	0.390428	0.312358
12.878	12.6335	0.391006	0.311249
12.8785	12.6331	0.390045	0.310387
12.8789	12.6326	0.390312	0.309243
12.8794	12.6321	0.38954	0.310187
12.8799	12.6317	0.391629	0.31172
12.8804	12.6312	0.389284	0.312693
12.8808	12.6307	0.389283	0.310224
12.8813	12.6302	0.390932	0.310659
12.8818	12.6298	0.390886	0.311291
12.8822	12.6293	0.390509	0.313286
12.8827	12.6288	0.389097	0.31346
12.8832	12.6284	0.391786	0.312602
12.8837	12.6279	0.391127	0.309319
12.8841	12.6274	0.390295	0.311353
12.8846	12.6269	0.390615	0.313111
12.8851	12.6265	0.388777	0.312196
12.8856	12.626	0.391112	0.311219
12.886	12.6255	0.390684	0.309733
12.8865	12.625	0.3909	0.308994
12.887	12.6245	0.390639	0.310681
12.8874	12.6241	0.390261	0.309495
12.8879	12.6236	0.390361	0.307414
12.8884	12.6231	0.391612	0.306716
12.8889	12.6226	0.392003	0.306634
12.8893	12.6222	0.391736	0.307184
12.8898	12.6217	0.3907	0.306536
12.8903	12.6212	0.391562	0.303881
12.8907	12.6208	0.392308	0.303215
12.8912	12.6203	0.389789	0.304506
12.8917	12.6198	0.390684	0.305437
12.8922	12.6193	0.389131	0.304913
12.8926	12.6189	0.390143	0.303466
12.8931	12.6184	0.390671	0.302603
12.8936	12.6179	0.390093	0.302358
12.8941	12.6175	0.390069	0.303912
12.8945	12.617	0.390429	0.303994
12.895	12.6165	0.390778	0.301673
12.8955	12.616	0.391843	0.301971
12.8959	12.6156	0.391566	0.30206
12.8964	12.6151	0.390385	0.303224
12.8969	12.6146	0.389384	0.303775
12.8974	12.6141	0.390197	0.301545
12.8978	12.6137	0.390722	0.301134
12.8983	12.6132	0.391565	0.299758
12.8988	12.6127	0.391759	0.301708
