# 1304     AichiSR QXAFS
# Start     : 8.9544
# End       : 9.0544
# Dir       : Forward
# Points    : 300
# ScanTime  : 1.01549
# Date      : 13.04.23 22:32
# Ring Cur. : 25.6[mA]
12.7557	12.7558	0.402874	1.22653
12.7562	12.7553	0.402207	1.2272
12.7566	12.7548	0.400813	1.22564
12.7571	12.7544	0.400618	1.2215
12.7576	12.7539	0.400603	1.21936
12.7581	12.7534	0.400285	1.21977
12.7585	12.753	0.40194	1.22414
12.759	12.7525	0.402025	1.22459
12.7595	12.752	0.400127	1.21998
12.7599	12.7516	0.402643	1.22056
12.7604	12.7511	0.401657	1.22196
12.7609	12.7506	0.402476	1.22364
12.7614	12.7501	0.400087	1.22178
12.7618	12.7497	0.40054	1.2193
12.7623	12.7492	0.401036	1.21802
12.7628	12.7488	0.400738	1.21563
12.7632	12.7483	0.402496	1.22059
12.7637	12.7478	0.400202	1.21947
12.7642	12.7473	0.400663	1.2152
12.7647	12.7469	0.400651	1.21421
12.7651	12.7464	0.401289	1.21616
12.7656	12.7459	0.400457	1.21757
12.7661	12.7454	0.399275	1.21594
12.7666	12.745	0.399601	1.21423
12.767	12.7445	0.400087	1.21078
12.7675	12.744	0.399881	1.21267
12.768	12.7435	0.398978	1.21492
12.7684	12.7431	0.398454	1.21413
12.7689	12.7426	0.397542	1.21098
12.7694	12.7421	0.40043	1.21122
12.7699	12.7417	0.402594	1.22573
12.7703	12.7412	0.402094	1.21926
12.7708	12.7407	0.39977	1.2118
12.7713	12.7402	0.39857	1.20932
12.7717	12.7398	0.398502	1.20941
12.7722	12.7393	0.399414	1.20715
12.7727	12.7389	0.399162	1.2106
12.7732	12.7384	0.398396	1.20767
12.7736	12.7379	0.39787	1.20468
12.7741	12.7374	0.399199	1.2031
12.7746	12.737	0.398001	1.20364
12.7751	12.7365	0.398067	1.20393
12.7755	12.736	0.39812	1.20181
12.776	12.7355	0.396951	1.1963
12.7765	12.735	0.399189	1.19619
12.7769	12.7345	0.398302	1.19509
12.7774	12.7341	0.399088	1.19818
12.7779	12.7336	0.397779	1.19519
12.7784	12.7331	0.397045	1.19104
12.7788	12.7327	0.399035	1.18859
12.7793	12.7322	0.400628	1.18925
12.7798	12.7317	0.399441	1.18806
12.7802	12.7313	0.397019	1.18167
12.7807	12.7308	0.397646	1.17998
12.7812	12.7303	0.398298	1.17634
12.7817	12.7298	0.400563	1.17243
12.7821	12.7294	0.398443	1.17245
12.7826	12.7289	0.397482	1.16766
12.7831	12.7284	0.39769	1.15796
12.7836	12.728	0.398744	1.15216
12.784	12.7275	0.398457	1.1468
12.7845	12.727	0.400024	1.13577
12.785	12.7265	0.398072	1.12132
12.7854	12.7261	0.396017	1.09897
12.7859	12.7256	0.396344	1.07481
12.7864	12.7251	0.394654	1.03958
12.7869	12.7246	0.394264	0.996242
12.7873	12.7242	0.392454	0.942223
12.7878	12.7237	0.393644	0.876175
12.7883	12.7232	0.397693	0.817586
12.7887	12.7227	0.398765	0.760845
12.7892	12.7223	0.398012	0.709115
12.7897	12.7218	0.399188	0.67224
12.7902	12.7214	0.399964	0.64215
12.7906	12.7209	0.402006	0.626932
12.7911	12.7204	0.401356	0.620875
12.7916	12.7199	0.399906	0.619842
12.7921	12.7195	0.400036	0.620803
12.7925	12.719	0.397927	0.624345
12.793	12.7185	0.401397	0.629641
12.7935	12.7181	0.400458	0.63437
12.7939	12.7176	0.401035	0.639037
12.7944	12.7171	0.40055	0.635743
12.7949	12.7167	0.398375	0.628536
12.7954	12.7162	0.400764	0.621736
12.7958	12.7157	0.401367	0.61257
12.7963	12.7152	0.401515	0.601566
12.7968	12.7147	0.40016	0.589524
12.7972	12.7143	0.398781	0.576881
12.7977	12.7138	0.401725	0.565695
12.7982	12.7133	0.400726	0.557197
12.7987	12.7128	0.400719	0.548098
12.7991	12.7124	0.400415	0.53601
12.7996	12.7119	0.40256	0.522473
12.8001	12.7115	0.402541	0.511026
12.8006	12.711	0.400853	0.500123
12.801	12.7105	0.400963	0.486319
12.8015	12.71	0.401769	0.469944
12.802	12.7096	0.400137	0.449229
12.8024	12.7091	0.402026	0.434295
12.8029	12.7086	0.401958	0.419139
12.8034	12.7082	0.401511	0.402285
12.8039	12.7077	0.401129	0.38576
12.8043	12.7072	0.400066	0.365714
12.8048	12.7067	0.401997	0.353536
12.8053	12.7062	0.402286	0.342183
12.8057	12.7058	0.401096	0.329842
12.8062	12.7053	0.401179	0.317321
12.8067	12.7048	0.400601	0.304797
12.8072	12.7043	0.404195	0.297245
12.8076	12.7038	0.402661	0.292567
12.8081	12.7034	0.399435	0.287591
12.8086	12.7029	0.400416	0.28289
12.8091	12.7024	0.400031	0.280898
12.8095	12.702	0.401889	0.281892
12.81	12.7015	0.402938	0.283917
12.8105	12.701	0.40122	0.288406
12.8109	12.7005	0.400666	0.290922
12.8114	12.7001	0.401736	0.294454
12.8119	12.6996	0.402012	0.29892
12.8124	12.6991	0.403559	0.305935
12.8128	12.6987	0.401031	0.31045
12.8133	12.6982	0.402548	0.313239
12.8138	12.6978	0.40157	0.315979
12.8142	12.6973	0.401952	0.319339
12.8147	12.6968	0.403234	0.324037
12.8152	12.6963	0.402174	0.326511
12.8157	12.6959	0.401757	0.326256
12.8161	12.6954	0.400833	0.324206
12.8166	12.6949	0.400998	0.32401
12.8171	12.6944	0.402842	0.322908
12.8176	12.6939	0.402048	0.321322
12.818	12.6935	0.401396	0.314577
12.8185	12.693	0.400157	0.30811
12.819	12.6925	0.40172	0.303551
12.8194	12.6921	0.402182	0.299106
12.8199	12.6916	0.401493	0.295167
12.8204	12.6912	0.402785	0.287307
12.8209	12.6907	0.401901	0.28091
12.8213	12.6902	0.402642	0.278417
12.8218	12.6897	0.400743	0.277794
12.8223	12.6893	0.402179	0.275531
12.8227	12.6888	0.401072	0.27617
12.8232	12.6883	0.40018	0.275116
12.8237	12.6879	0.401242	0.277856
12.8242	12.6874	0.401879	0.283504
12.8246	12.6869	0.400071	0.28788
12.8251	12.6864	0.398578	0.290597
12.8256	12.686	0.399144	0.294553
12.8261	12.6855	0.400236	0.299872
12.8265	12.685	0.400198	0.304537
12.827	12.6845	0.398217	0.308537
12.8275	12.684	0.398569	0.308772
12.8279	12.6836	0.398665	0.3114
12.8284	12.6831	0.398938	0.314505
12.8289	12.6826	0.39869	0.319953
12.8294	12.6822	0.39838	0.32276
12.8298	12.6817	0.398867	0.3253
12.8303	12.6812	0.39816	0.326864
12.8308	12.6807	0.401454	0.330769
12.8312	12.6803	0.402086	0.335267
12.8317	12.6798	0.39828	0.33802
12.8322	12.6793	0.399012	0.339476
12.8327	12.6789	0.400264	0.341426
12.8331	12.6784	0.400225	0.342772
12.8336	12.6779	0.401739	0.345498
12.8341	12.6775	0.399569	0.346913
12.8346	12.677	0.40099	0.346584
12.835	12.6765	0.4008	0.344137
12.8355	12.676	0.401798	0.34622
12.836	12.6755	0.401722	0.346611
12.8364	12.6751	0.398864	0.34528
12.8369	12.6746	0.400457	0.342135
12.8374	12.6741	0.401194	0.340088
12.8379	12.6736	0.400597	0.340273
12.8383	12.6731	0.401025	0.341241
12.8388	12.6727	0.399398	0.339796
12.8393	12.6722	0.399333	0.336297
12.8397	12.6718	0.399996	0.334367
12.8402	12.6713	0.401336	0.333255
12.8407	12.6708	0.399905	0.333271
12.8412	12.6703	0.399863	0.330313
12.8416	12.6699	0.399167	0.32654
12.8421	12.6694	0.39997	0.324419
12.8426	12.6689	0.400042	0.320947
12.8431	12.6685	0.399756	0.320647
12.8435	12.668	0.399427	0.317922
12.844	12.6675	0.398064	0.314634
12.8445	12.6671	0.400037	0.311703
12.8449	12.6666	0.399854	0.308392
12.8454	12.6661	0.399529	0.306897
12.8459	12.6656	0.397718	0.305229
12.8464	12.6652	0.398579	0.302244
12.8468	12.6647	0.400215	0.298243
12.8473	12.6642	0.39916	0.296506
12.8478	12.6637	0.399474	0.297077
12.8482	12.6633	0.397091	0.293426
12.8487	12.6628	0.399893	0.291082
12.8492	12.6623	0.399177	0.288387
12.8497	12.6619	0.398422	0.28658
12.8501	12.6614	0.39843	0.285121
12.8506	12.6609	0.396261	0.282966
12.8511	12.6605	0.396305	0.278801
12.8516	12.66	0.397441	0.278377
12.852	12.6595	0.396308	0.277643
12.8525	12.6591	0.397402	0.277213
12.853	12.6586	0.396505	0.275257
12.8534	12.6581	0.397831	0.273721
12.8539	12.6577	0.396103	0.272178
12.8544	12.6572	0.398556	0.273052
12.8549	12.6567	0.398521	0.274629
12.8553	12.6562	0.395538	0.275991
12.8558	12.6557	0.395531	0.27443
12.8563	12.6553	0.397158	0.274074
12.8567	12.6548	0.396368	0.27585
12.8572	12.6543	0.398163	0.279282
12.8577	12.6538	0.396838	0.280652
12.8582	12.6534	0.396744	0.280555
12.8586	12.6529	0.396419	0.282176
12.8591	12.6524	0.39823	0.286724
12.8596	12.652	0.397792	0.289109
12.8601	12.6515	0.396482	0.291326
12.8605	12.651	0.396914	0.291669
12.861	12.6505	0.397274	0.295399
12.8615	12.65	0.396351	0.297713
12.8619	12.6496	0.396572	0.300814
12.8624	12.6491	0.396535	0.303492
12.8629	12.6487	0.394472	0.303246
12.8634	12.6482	0.396349	0.30535
12.8638	12.6477	0.395609	0.308572
12.8643	12.6472	0.39609	0.311412
12.8648	12.6467	0.39288	0.312174
12.8652	12.6463	0.394226	0.310482
12.8657	12.6458	0.394019	0.312062
12.8662	12.6453	0.393073	0.313782
12.8667	12.6448	0.392132	0.317581
12.8671	12.6443	0.391734	0.317489
12.8676	12.6439	0.392441	0.317281
12.8681	12.6434	0.392524	0.317577
12.8686	12.6429	0.39438	0.319748
12.869	12.6425	0.395023	0.321952
12.8695	12.642	0.395001	0.321772
12.87	12.6416	0.393298	0.32042
12.8704	12.6411	0.396913	0.3209
12.8709	12.6406	0.396123	0.321861
12.8714	12.6401	0.393803	0.32288
12.8719	12.6397	0.394568	0.323113
12.8723	12.6392	0.394033	0.321272
12.8728	12.6387	0.395785	0.320443
12.8733	12.6383	0.39449	0.319866
12.8737	12.6378	0.394402	0.320278
12.8742	12.6373	0.393617	0.319157
12.8747	12.6369	0.394095	0.316791
12.8752	12.6364	0.394695	0.317305
12.8756	12.6359	0.392763	0.317774
12.8761	12.6354	0.394355	0.317325
12.8766	12.635	0.394029	0.317172
12.8771	12.6345	0.394774	0.313935
12.8775	12.634	0.394428	0.314047
12.878	12.6335	0.393347	0.313403
12.8785	12.6331	0.393277	0.314853
12.8789	12.6326	0.392451	0.313527
12.8794	12.6321	0.392585	0.311731
12.8799	12.6317	0.394917	0.314684
12.8804	12.6312	0.393748	0.312983
12.8808	12.6307	0.392557	0.31407
12.8813	12.6302	0.393707	0.313597
12.8818	12.6298	0.393475	0.312691
12.8822	12.6293	0.394562	0.312811
12.8827	12.6288	0.391316	0.313673
12.8832	12.6284	0.391859	0.314291
12.8837	12.6279	0.391477	0.314316
12.8841	12.6274	0.392241	0.312308
12.8846	12.6269	0.394834	0.313328
12.8851	12.6265	0.393251	0.312841
12.8856	12.626	0.392284	0.313522
12.886	12.6255	0.392562	0.314009
12.8865	12.625	0.392643	0.311732
12.887	12.6246	0.393892	0.310787
12.8874	12.6241	0.392166	0.310801
12.8879	12.6236	0.390979	0.311337
12.8884	12.6231	0.390544	0.308507
12.8889	12.6227	0.390833	0.306736
12.8893	12.6222	0.392319	0.305372
12.8898	12.6217	0.391274	0.305406
12.8903	12.6213	0.389963	0.306153
12.8907	12.6208	0.390105	0.304125
12.8912	12.6203	0.391201	0.303601
12.8917	12.6198	0.391788	0.303495
12.8922	12.6194	0.390752	0.304536
12.8926	12.6189	0.389013	0.304766
12.8931	12.6184	0.389921	0.302871
12.8936	12.618	0.390033	0.30224
12.8941	12.6175	0.391099	0.303067
12.8945	12.617	0.389427	0.303503
12.895	12.6165	0.389011	0.303512
12.8955	12.616	0.38974	0.303472
12.8959	12.6156	0.389846	0.301793
12.8964	12.6151	0.389875	0.302387
12.8969	12.6146	0.388611	0.301338
12.8974	12.6141	0.387784	0.301764
12.8978	12.6137	0.387832	0.300808
12.8983	12.6132	0.387915	0.298484
12.8988	12.6127	0.389512	0.299472
