# 1304     AichiSR QXAFS
# Start     : 8.9544
# End       : 9.0544
# Dir       : Backward
# Points    : 300
# ScanTime  : 1.01549
# Date      : 13.04.23 22:25
# Ring Cur. : 25.5[mA]
12.7557	12.6118	0.304184	0.232565
12.7562	12.6122	0.302332	0.230796
12.7566	12.6127	0.303492	0.233003
12.7571	12.6131	0.305205	0.234765
12.7576	12.6136	0.303072	0.235017
12.7581	12.6141	0.303678	0.233923
12.7585	12.6145	0.305352	0.235947
12.759	12.615	0.303627	0.235256
12.7595	12.6155	0.303672	0.23726
12.7599	12.616	0.304521	0.237971
12.7604	12.6165	0.304599	0.236121
12.7609	12.6169	0.30437	0.234733
12.7614	12.6174	0.304928	0.237099
12.7618	12.6179	0.306373	0.240197
12.7623	12.6184	0.304307	0.238449
12.7628	12.6188	0.303478	0.236947
12.7632	12.6193	0.307853	0.237229
12.7637	12.6198	0.306096	0.237291
12.7642	12.6202	0.302911	0.23781
12.7647	12.6207	0.3035	0.238508
12.7651	12.6212	0.304902	0.237703
12.7656	12.6217	0.304829	0.237619
12.7661	12.6221	0.305003	0.239709
12.7666	12.6226	0.305284	0.24004
12.767	12.6231	0.304322	0.240641
12.7675	12.6235	0.303115	0.238306
12.768	12.624	0.306773	0.240673
12.7684	12.6245	0.305803	0.241719
12.7689	12.625	0.304268	0.242365
12.7694	12.6254	0.30452	0.24394
12.7699	12.6259	0.305237	0.242069
12.7703	12.6264	0.306386	0.24299
12.7708	12.6269	0.306678	0.243545
12.7713	12.6274	0.30772	0.247046
12.7717	12.6278	0.304826	0.244787
12.7722	12.6283	0.305389	0.242959
12.7727	12.6288	0.305984	0.244162
12.7732	12.6292	0.306202	0.2442
12.7736	12.6297	0.304341	0.244508
12.7741	12.6302	0.306278	0.245682
12.7746	12.6306	0.304858	0.243515
12.7751	12.6311	0.306117	0.243977
12.7755	12.6316	0.3073	0.244853
12.776	12.6321	0.305692	0.245326
12.7765	12.6325	0.303965	0.244296
12.7769	12.633	0.303975	0.243583
12.7774	12.6335	0.308248	0.245295
12.7779	12.6339	0.305762	0.243873
12.7784	12.6344	0.304971	0.245148
12.7788	12.6349	0.306288	0.246284
12.7793	12.6354	0.30558	0.243754
12.7798	12.6358	0.305639	0.244125
12.7802	12.6363	0.307333	0.247198
12.7807	12.6368	0.307481	0.248858
12.7812	12.6373	0.305446	0.247282
12.7817	12.6377	0.305164	0.247554
12.7821	12.6382	0.310115	0.247941
12.7826	12.6387	0.309359	0.25196
12.7831	12.6391	0.306908	0.251131
12.7836	12.6396	0.307992	0.252809
12.784	12.6401	0.307364	0.249392
12.7845	12.6405	0.307691	0.249215
12.785	12.641	0.306469	0.251476
12.7854	12.6415	0.308389	0.253696
12.7859	12.642	0.306383	0.251024
12.7864	12.6424	0.306119	0.248211
12.7869	12.6429	0.308881	0.251128
12.7873	12.6433	0.306203	0.249801
12.7878	12.6438	0.305323	0.252161
12.7883	12.6443	0.307601	0.250201
12.7887	12.6448	0.306238	0.246343
12.7892	12.6452	0.305199	0.245395
12.7897	12.6457	0.305984	0.248024
12.7902	12.6462	0.306384	0.246398
12.7906	12.6467	0.304122	0.244117
12.7911	12.6472	0.30613	0.242124
12.7916	12.6476	0.308528	0.242637
12.7921	12.6481	0.308566	0.242489
12.7925	12.6486	0.307796	0.241973
12.793	12.649	0.309708	0.240626
12.7935	12.6495	0.309692	0.236644
12.7939	12.65	0.31085	0.236116
12.7944	12.6505	0.310551	0.235809
12.7949	12.6509	0.311858	0.234972
12.7954	12.6514	0.31015	0.231143
12.7958	12.6519	0.310149	0.228241
12.7963	12.6524	0.313582	0.229467
12.7968	12.6528	0.311569	0.226421
12.7972	12.6533	0.31078	0.22539
12.7977	12.6538	0.312082	0.224677
12.7982	12.6542	0.313123	0.222141
12.7987	12.6547	0.312714	0.217954
12.7991	12.6552	0.313803	0.219194
12.7996	12.6557	0.314472	0.221148
12.8001	12.6561	0.313317	0.218065
12.8006	12.6566	0.313626	0.215506
12.801	12.6571	0.315954	0.217014
12.8015	12.6576	0.312916	0.216252
12.802	12.6581	0.311923	0.217283
12.8024	12.6585	0.314168	0.217293
12.8029	12.659	0.314315	0.216863
12.8034	12.6595	0.314502	0.216353
12.8039	12.6599	0.313823	0.219542
12.8043	12.6604	0.314855	0.222024
12.8048	12.6609	0.314548	0.2237
12.8053	12.6613	0.315459	0.224449
12.8057	12.6618	0.317292	0.225287
12.8062	12.6623	0.315338	0.226308
12.8067	12.6627	0.316395	0.230229
12.8072	12.6632	0.319043	0.231991
12.8076	12.6637	0.316839	0.232355
12.8081	12.6641	0.316262	0.232328
12.8086	12.6646	0.317477	0.23537
12.8091	12.6651	0.316035	0.237894
12.8095	12.6656	0.316298	0.238113
12.81	12.666	0.317924	0.241165
12.8105	12.6665	0.318952	0.244863
12.8109	12.667	0.31747	0.244132
12.8114	12.6675	0.316427	0.2483
12.8119	12.6679	0.321461	0.250871
12.8124	12.6684	0.320254	0.250401
12.8128	12.6689	0.318477	0.252529
12.8133	12.6693	0.319078	0.255951
12.8138	12.6698	0.3183	0.258526
12.8142	12.6703	0.317579	0.25859
12.8147	12.6707	0.317129	0.260466
12.8152	12.6712	0.320793	0.264975
12.8157	12.6717	0.317896	0.263749
12.8161	12.6722	0.317508	0.266902
12.8166	12.6726	0.320302	0.269609
12.8171	12.6731	0.320753	0.270145
12.8176	12.6736	0.31873	0.270042
12.818	12.674	0.319579	0.273516
12.8185	12.6745	0.319744	0.27469
12.819	12.675	0.318796	0.272723
12.8194	12.6755	0.318774	0.272734
12.8199	12.676	0.322167	0.276384
12.8204	12.6764	0.319861	0.277295
12.8209	12.6769	0.319335	0.277338
12.8213	12.6774	0.322296	0.278292
12.8218	12.6779	0.322149	0.276597
12.8223	12.6783	0.322395	0.276226
12.8227	12.6788	0.322065	0.278883
12.8232	12.6793	0.323179	0.278678
12.8237	12.6797	0.320826	0.273927
12.8242	12.6802	0.321349	0.273248
12.8246	12.6807	0.323458	0.271593
12.8251	12.6812	0.321242	0.26992
12.8256	12.6816	0.31836	0.265989
12.8261	12.6821	0.32126	0.263057
12.8265	12.6826	0.321725	0.260739
12.827	12.683	0.322186	0.259687
12.8275	12.6835	0.321257	0.256829
12.8279	12.684	0.320294	0.256613
12.8284	12.6844	0.320425	0.251414
12.8289	12.6849	0.32201	0.248702
12.8294	12.6854	0.323596	0.248058
12.8298	12.6859	0.322455	0.244743
12.8303	12.6864	0.321783	0.241472
12.8308	12.6868	0.322042	0.236147
12.8312	12.6873	0.324216	0.232949
12.8317	12.6878	0.323126	0.230945
12.8322	12.6883	0.323626	0.229781
12.8327	12.6887	0.322647	0.226426
12.8331	12.6892	0.322883	0.223228
12.8336	12.6897	0.324656	0.221952
12.8341	12.6901	0.325813	0.222966
12.8346	12.6906	0.323812	0.223786
12.835	12.6911	0.322837	0.226484
12.8355	12.6916	0.323038	0.230026
12.836	12.692	0.323836	0.233877
12.8364	12.6925	0.324841	0.238323
12.8369	12.6929	0.324692	0.24319
12.8374	12.6934	0.322127	0.247655
12.8379	12.6939	0.323349	0.25078
12.8383	12.6943	0.324226	0.255491
12.8388	12.6948	0.324623	0.258728
12.8393	12.6953	0.324107	0.262445
12.8397	12.6958	0.32289	0.263087
12.8402	12.6963	0.322742	0.262903
12.8407	12.6967	0.32519	0.262356
12.8412	12.6972	0.32437	0.262236
12.8416	12.6977	0.323948	0.262248
12.8421	12.6982	0.323853	0.258698
12.8426	12.6986	0.322847	0.253798
12.8431	12.6991	0.325695	0.252246
12.8435	12.6995	0.324331	0.249413
12.844	12.7	0.324378	0.247226
12.8445	12.7005	0.322609	0.241147
12.8449	12.701	0.323527	0.236649
12.8454	12.7014	0.325926	0.233289
12.8459	12.7019	0.322006	0.230543
12.8464	12.7024	0.323273	0.229188
12.8468	12.7028	0.32417	0.228378
12.8473	12.7033	0.321632	0.227404
12.8478	12.7038	0.324489	0.228874
12.8482	12.7043	0.326156	0.234387
12.8487	12.7047	0.325245	0.239088
12.8492	12.7052	0.325463	0.243334
12.8497	12.7057	0.325436	0.25071
12.8501	12.7062	0.326925	0.258802
12.8506	12.7067	0.324722	0.266964
12.8511	12.7071	0.325641	0.280773
12.8516	12.7076	0.326877	0.292449
12.852	12.7081	0.323748	0.300282
12.8525	12.7086	0.326669	0.315567
12.853	12.709	0.326613	0.330769
12.8534	12.7095	0.325564	0.344409
12.8539	12.71	0.325159	0.357005
12.8544	12.7104	0.324897	0.368556
12.8549	12.7109	0.327186	0.383555
12.8553	12.7114	0.324328	0.396988
12.8558	12.7119	0.327388	0.409926
12.8563	12.7123	0.326028	0.421686
12.8567	12.7128	0.325459	0.428494
12.8572	12.7133	0.328656	0.439974
12.8577	12.7137	0.326549	0.448524
12.8582	12.7142	0.325682	0.457601
12.8586	12.7147	0.325956	0.465168
12.8591	12.7152	0.327061	0.472683
12.8596	12.7156	0.327601	0.480472
12.8601	12.7161	0.327176	0.492099
12.8605	12.7166	0.326074	0.501978
12.861	12.7171	0.325782	0.507665
12.8615	12.7175	0.324754	0.510696
12.8619	12.718	0.327755	0.516908
12.8624	12.7185	0.326461	0.518506
12.8629	12.7189	0.32458	0.516467
12.8634	12.7194	0.324202	0.513688
12.8638	12.7199	0.32571	0.509805
12.8643	12.7203	0.326849	0.50537
12.8648	12.7208	0.325049	0.504353
12.8652	12.7213	0.324226	0.506121
12.8657	12.7218	0.325064	0.513345
12.8662	12.7222	0.322211	0.523076
12.8667	12.7227	0.325408	0.547229
12.8671	12.7231	0.325101	0.581661
12.8676	12.7236	0.321839	0.623834
12.8681	12.7241	0.321022	0.671371
12.8686	12.7246	0.321158	0.72523
12.869	12.725	0.32299	0.774769
12.8695	12.7255	0.320337	0.811086
12.87	12.726	0.321997	0.854776
12.8704	12.7265	0.323472	0.879311
12.8709	12.7269	0.322137	0.891883
12.8714	12.7274	0.32568	0.913996
12.8719	12.7279	0.325348	0.92859
12.8723	12.7284	0.322151	0.930424
12.8728	12.7288	0.323295	0.940147
12.8733	12.7293	0.324292	0.949627
12.8737	12.7298	0.325673	0.952443
12.8742	12.7302	0.323747	0.952908
12.8747	12.7307	0.32549	0.96427
12.8752	12.7312	0.325871	0.965233
12.8756	12.7317	0.324082	0.958676
12.8761	12.7321	0.32681	0.967415
12.8766	12.7326	0.328021	0.97459
12.8771	12.7331	0.325077	0.972643
12.8775	12.7335	0.325326	0.971631
12.878	12.734	0.327196	0.980686
12.8785	12.7345	0.326939	0.980816
12.8789	12.735	0.325929	0.977183
12.8794	12.7355	0.325783	0.983048
12.8799	12.7359	0.325408	0.979985
12.8804	12.7364	0.325656	0.978817
12.8808	12.7369	0.32705	0.985659
12.8813	12.7374	0.327207	0.987942
12.8818	12.7379	0.32548	0.984465
12.8822	12.7383	0.326534	0.988876
12.8827	12.7388	0.327769	0.990729
12.8832	12.7393	0.328998	0.990108
12.8837	12.7397	0.326923	0.990127
12.8841	12.7402	0.326989	0.991875
12.8846	12.7407	0.326345	0.990998
12.8851	12.7412	0.326717	0.992539
12.8856	12.7416	0.328418	0.994741
12.886	12.7421	0.32792	0.994168
12.8865	12.7426	0.3267	0.996638
12.887	12.743	0.326468	0.992842
12.8874	12.7435	0.328124	0.996029
12.8879	12.744	0.330179	0.997735
12.8884	12.7444	0.328788	0.998377
12.8889	12.7449	0.327518	1.00065
12.8893	12.7454	0.326866	0.997267
12.8898	12.7459	0.329129	0.998053
12.8903	12.7463	0.329827	1.00132
12.8907	12.7468	0.329386	1.00144
12.8912	12.7473	0.326831	1.0014
12.8917	12.7478	0.327495	0.998803
12.8922	12.7482	0.329272	1.00313
12.8926	12.7487	0.331656	1.00351
12.8931	12.7492	0.328564	1.00078
12.8936	12.7496	0.328259	1.00516
12.8941	12.7501	0.330037	0.999974
12.8945	12.7506	0.32883	0.998554
12.895	12.751	0.330301	1.00199
12.8955	12.7515	0.329921	1.00847
12.8959	12.752	0.326719	1.00298
12.8964	12.7524	0.327439	0.996648
12.8969	12.7529	0.330426	1.00452
12.8974	12.7534	0.33026	1.00413
12.8978	12.7538	0.330156	1.00531
12.8983	12.7543	0.328845	1.00972
12.8988	12.7548	0.329228	1.00374
