# 1304     AichiSR QXAFS
# Start     : 8.9544
# End       : 9.0544
# Dir       : Forward
# Points    : 300
# ScanTime  : 1.01549
# Date      : 13.04.23 22:28
# Ring Cur. : 25.4[mA]
12.7557	12.7558	0.396791	1.20939
12.7562	12.7553	0.395929	1.21012
12.7566	12.7548	0.394995	1.20876
12.7571	12.7543	0.395598	1.20532
12.7576	12.7538	0.396279	1.20447
12.7581	12.7534	0.39553	1.20463
12.7585	12.7529	0.395767	1.20428
12.759	12.7525	0.394382	1.20372
12.7595	12.752	0.394261	1.20128
12.7599	12.7515	0.396722	1.2025
12.7604	12.7511	0.396825	1.20105
12.7609	12.7506	0.394357	1.20349
12.7614	12.7501	0.394593	1.20056
12.7618	12.7496	0.394724	1.19948
12.7623	12.7492	0.39537	1.1998
12.7628	12.7487	0.395353	1.20238
12.7632	12.7483	0.39568	1.20501
12.7637	12.7478	0.393177	1.20347
12.7642	12.7473	0.394468	1.19787
12.7647	12.7468	0.396764	1.20182
12.7651	12.7464	0.39847	1.21144
12.7656	12.7459	0.394456	1.19951
12.7661	12.7454	0.393306	1.20015
12.7666	12.7449	0.393249	1.19472
12.767	12.7444	0.394531	1.19614
12.7675	12.744	0.394439	1.19722
12.768	12.7435	0.393574	1.19887
12.7684	12.743	0.394435	1.19741
12.7689	12.7426	0.393397	1.1926
12.7694	12.7421	0.395738	1.19523
12.7699	12.7416	0.39373	1.19556
12.7703	12.7412	0.394527	1.19371
12.7708	12.7407	0.393208	1.19295
12.7713	12.7402	0.392437	1.18849
12.7717	12.7397	0.393837	1.18626
12.7722	12.7393	0.391805	1.19052
12.7727	12.7388	0.393503	1.19031
12.7732	12.7383	0.391909	1.18883
12.7736	12.7379	0.39283	1.18353
12.7741	12.7374	0.394028	1.18525
12.7746	12.7369	0.394017	1.19064
12.7751	12.7364	0.392825	1.19075
12.7755	12.736	0.392215	1.18612
12.776	12.7355	0.393185	1.18141
12.7765	12.735	0.395159	1.18179
12.7769	12.7345	0.393617	1.18379
12.7774	12.734	0.393616	1.18284
12.7779	12.7336	0.391782	1.17765
12.7784	12.7331	0.393177	1.17409
12.7788	12.7326	0.394273	1.17404
12.7793	12.7322	0.392186	1.17441
12.7798	12.7317	0.392311	1.1731
12.7802	12.7312	0.393627	1.1713
12.7807	12.7307	0.39238	1.16533
12.7812	12.7303	0.394673	1.16226
12.7817	12.7298	0.395596	1.16103
12.7821	12.7293	0.393545	1.16096
12.7826	12.7289	0.394515	1.15227
12.7831	12.7284	0.393379	1.14283
12.7836	12.7279	0.394137	1.13551
12.784	12.7274	0.394946	1.12763
12.7845	12.727	0.391452	1.11645
12.785	12.7265	0.389998	1.09817
12.7854	12.726	0.39041	1.0747
12.7859	12.7255	0.390849	1.04843
12.7864	12.7251	0.388349	1.00889
12.7869	12.7246	0.387174	0.964483
12.7873	12.7241	0.389384	0.911179
12.7878	12.7236	0.388765	0.846235
12.7883	12.7232	0.393095	0.789314
12.7887	12.7227	0.394143	0.739905
12.7892	12.7223	0.394313	0.692919
12.7897	12.7218	0.394724	0.652762
12.7902	12.7213	0.394026	0.628871
12.7906	12.7208	0.395705	0.616532
12.7911	12.7204	0.395029	0.610704
12.7916	12.7199	0.396146	0.613357
12.7921	12.7194	0.392824	0.613043
12.7925	12.719	0.393155	0.617172
12.793	12.7185	0.394912	0.622208
12.7935	12.718	0.394491	0.628302
12.7939	12.7176	0.394104	0.629075
12.7944	12.7171	0.394103	0.62272
12.7949	12.7166	0.39456	0.617411
12.7954	12.7161	0.395394	0.608152
12.7958	12.7157	0.394088	0.598972
12.7963	12.7152	0.396025	0.589995
12.7968	12.7147	0.39359	0.57554
12.7972	12.7142	0.392047	0.563986
12.7977	12.7137	0.394364	0.55433
12.7982	12.7133	0.394798	0.546925
12.7987	12.7128	0.393791	0.53678
12.7991	12.7124	0.394644	0.52472
12.7996	12.7119	0.394151	0.509029
12.8001	12.7114	0.395083	0.497898
12.8006	12.7109	0.394725	0.48678
12.801	12.7105	0.395692	0.473059
12.8015	12.71	0.395481	0.45852
12.802	12.7095	0.394766	0.439594
12.8024	12.7091	0.396438	0.422911
12.8029	12.7086	0.396044	0.409505
12.8034	12.7081	0.396047	0.394157
12.8039	12.7076	0.394404	0.37572
12.8043	12.7072	0.394194	0.357318
12.8048	12.7067	0.396803	0.345093
12.8053	12.7062	0.395403	0.332643
12.8057	12.7057	0.394572	0.320283
12.8062	12.7052	0.394472	0.308403
12.8067	12.7048	0.394862	0.297379
12.8072	12.7043	0.396126	0.290608
12.8076	12.7038	0.396526	0.286029
12.8081	12.7033	0.395177	0.282607
12.8086	12.7029	0.39378	0.278027
12.8091	12.7024	0.395685	0.277993
12.8095	12.7019	0.395891	0.277935
12.81	12.7015	0.395435	0.280251
12.8105	12.701	0.395581	0.286435
12.8109	12.7005	0.395954	0.288261
12.8114	12.7	0.392912	0.290127
12.8119	12.6996	0.396907	0.296514
12.8124	12.6991	0.396943	0.301727
12.8128	12.6987	0.394274	0.305607
12.8133	12.6982	0.394066	0.309723
12.8138	12.6977	0.395437	0.311199
12.8142	12.6972	0.396207	0.316104
12.8147	12.6968	0.395135	0.319776
12.8152	12.6963	0.39618	0.321625
12.8157	12.6958	0.395654	0.320482
12.8161	12.6953	0.39384	0.319645
12.8166	12.6949	0.397537	0.319453
12.8171	12.6944	0.396652	0.317072
12.8176	12.6939	0.393972	0.313426
12.818	12.6934	0.394592	0.308929
12.8185	12.693	0.394179	0.303063
12.819	12.6925	0.395982	0.296584
12.8194	12.6921	0.394722	0.292831
12.8199	12.6916	0.395368	0.28841
12.8204	12.6911	0.394411	0.282201
12.8209	12.6906	0.394118	0.275607
12.8213	12.6902	0.394456	0.273344
12.8218	12.6897	0.394739	0.273483
12.8223	12.6892	0.394351	0.271864
12.8227	12.6888	0.393277	0.271963
12.8232	12.6883	0.395085	0.272203
12.8237	12.6878	0.393546	0.274848
12.8242	12.6874	0.393947	0.280416
12.8246	12.6869	0.39321	0.284988
12.8251	12.6864	0.392981	0.286821
12.8256	12.6859	0.392022	0.291668
12.8261	12.6854	0.393595	0.294968
12.8265	12.685	0.392481	0.299279
12.827	12.6845	0.391357	0.303394
12.8275	12.684	0.391901	0.305743
12.8279	12.6835	0.392984	0.307821
12.8284	12.6831	0.391979	0.31301
12.8289	12.6826	0.393155	0.315536
12.8294	12.6821	0.392723	0.318455
12.8298	12.6817	0.393781	0.321178
12.8303	12.6812	0.392434	0.323363
12.8308	12.6807	0.39477	0.327805
12.8312	12.6802	0.395742	0.331366
12.8317	12.6798	0.393148	0.333856
12.8322	12.6793	0.394489	0.336307
12.8327	12.6788	0.392659	0.336803
12.8331	12.6784	0.393854	0.33719
12.8336	12.6779	0.394752	0.340939
12.8341	12.6774	0.394084	0.341188
12.8346	12.6769	0.393616	0.338888
12.835	12.6765	0.395092	0.338767
12.8355	12.676	0.394363	0.340107
12.836	12.6755	0.394504	0.34073
12.8364	12.675	0.39301	0.33988
12.8369	12.6745	0.394795	0.337878
12.8374	12.6741	0.392834	0.333815
12.8379	12.6736	0.394537	0.335053
12.8383	12.6731	0.394572	0.333775
12.8388	12.6726	0.393376	0.333992
12.8393	12.6722	0.393245	0.330004
12.8397	12.6717	0.392731	0.328357
12.8402	12.6713	0.394418	0.327004
12.8407	12.6708	0.39588	0.325687
12.8412	12.6703	0.393013	0.324292
12.8416	12.6698	0.392739	0.320347
12.8421	12.6694	0.392914	0.316987
12.8426	12.6689	0.393127	0.315793
12.8431	12.6685	0.393166	0.314781
12.8435	12.668	0.391591	0.311947
12.844	12.6675	0.391012	0.309252
12.8445	12.667	0.392238	0.304627
12.8449	12.6666	0.391954	0.303557
12.8454	12.6661	0.393938	0.302893
12.8459	12.6656	0.392063	0.300562
12.8464	12.6651	0.392251	0.295488
12.8468	12.6647	0.391383	0.292657
12.8473	12.6642	0.391092	0.291625
12.8478	12.6637	0.391854	0.290323
12.8482	12.6632	0.391268	0.289032
12.8487	12.6628	0.391823	0.285157
12.8492	12.6623	0.391074	0.281615
12.8497	12.6619	0.392088	0.281896
12.8501	12.6614	0.392192	0.279583
12.8506	12.6609	0.390209	0.277741
12.8511	12.6604	0.391008	0.274987
12.8516	12.66	0.390617	0.272554
12.852	12.6595	0.390694	0.271603
12.8525	12.659	0.391024	0.27145
12.853	12.6586	0.388123	0.271122
12.8534	12.6581	0.390673	0.269246
12.8539	12.6576	0.388784	0.267091
12.8544	12.6571	0.389348	0.267542
12.8549	12.6567	0.390963	0.270831
12.8553	12.6562	0.389252	0.269782
12.8558	12.6557	0.389729	0.268534
12.8563	12.6552	0.391212	0.269592
12.8567	12.6547	0.391434	0.271411
12.8572	12.6543	0.39185	0.274484
12.8577	12.6538	0.39037	0.276379
12.8582	12.6533	0.390253	0.277568
12.8586	12.6529	0.390613	0.278172
12.8591	12.6524	0.390525	0.281913
12.8596	12.6519	0.39118	0.28493
12.8601	12.6515	0.388542	0.286521
12.8605	12.651	0.39047	0.288847
12.861	12.6505	0.390794	0.289811
12.8615	12.65	0.390867	0.291852
12.8619	12.6495	0.390992	0.297191
12.8624	12.6491	0.389595	0.29975
12.8629	12.6486	0.389226	0.2996
12.8634	12.6481	0.387764	0.301172
12.8638	12.6477	0.388469	0.302158
12.8643	12.6472	0.38879	0.306181
12.8648	12.6467	0.385463	0.306133
12.8652	12.6462	0.384398	0.30666
12.8657	12.6458	0.385188	0.306687
12.8662	12.6453	0.385072	0.308776
12.8667	12.6448	0.386535	0.311216
12.8671	12.6443	0.384714	0.311733
12.8676	12.6438	0.386771	0.312199
12.8681	12.6434	0.386026	0.311533
12.8686	12.6429	0.387682	0.316131
12.869	12.6424	0.388122	0.317333
12.8695	12.642	0.387625	0.316497
12.87	12.6415	0.387553	0.316348
12.8704	12.641	0.388258	0.31568
12.8709	12.6406	0.389473	0.31594
12.8714	12.6401	0.388881	0.316902
12.8719	12.6396	0.387714	0.317911
12.8723	12.6392	0.38813	0.315221
12.8728	12.6387	0.385625	0.313716
12.8733	12.6382	0.386975	0.312298
12.8737	12.6378	0.389495	0.315991
12.8742	12.6373	0.387142	0.314354
12.8747	12.6368	0.38729	0.311621
12.8752	12.6363	0.38711	0.310483
12.8756	12.6359	0.38778	0.310917
12.8761	12.6354	0.386424	0.310443
12.8766	12.6349	0.387237	0.309837
12.8771	12.6344	0.38631	0.308488
12.8775	12.634	0.386563	0.305115
12.878	12.6335	0.385251	0.307597
12.8785	12.633	0.386998	0.309097
12.8789	12.6326	0.387302	0.30807
12.8794	12.6321	0.385358	0.307168
12.8799	12.6316	0.3874	0.307901
12.8804	12.6312	0.385711	0.307419
12.8808	12.6307	0.38677	0.310151
12.8813	12.6302	0.385001	0.30805
12.8818	12.6297	0.38499	0.306574
12.8822	12.6293	0.384263	0.307922
12.8827	12.6288	0.385236	0.308035
12.8832	12.6283	0.385881	0.309691
12.8837	12.6279	0.38409	0.309115
12.8841	12.6274	0.384231	0.306607
12.8846	12.6269	0.385566	0.306557
12.8851	12.6264	0.383501	0.30538
12.8856	12.626	0.383848	0.307554
12.886	12.6255	0.385503	0.30641
12.8865	12.625	0.384247	0.305549
12.887	12.6245	0.385093	0.304156
12.8874	12.624	0.384197	0.303783
12.8879	12.6236	0.385021	0.303997
12.8884	12.6231	0.383538	0.302689
12.8889	12.6226	0.382382	0.299996
12.8893	12.6222	0.383598	0.299615
12.8898	12.6217	0.383131	0.298707
12.8903	12.6212	0.383229	0.300203
12.8907	12.6207	0.382793	0.300102
12.8912	12.6203	0.381921	0.296987
12.8917	12.6198	0.38307	0.295741
12.8922	12.6193	0.382491	0.297995
12.8926	12.6189	0.381	0.298893
12.8931	12.6184	0.381181	0.297968
12.8936	12.6179	0.382124	0.295751
12.8941	12.6174	0.382552	0.296256
12.8945	12.617	0.382075	0.29701
12.895	12.6165	0.383485	0.298212
12.8955	12.616	0.382144	0.29671
12.8959	12.6155	0.38152	0.295119
12.8964	12.6151	0.380922	0.294443
12.8969	12.6146	0.381456	0.295872
12.8974	12.6141	0.381556	0.296742
12.8978	12.6136	0.379789	0.295521
12.8983	12.6132	0.379012	0.293365
12.8988	12.6127	0.380436	0.29306
