# 1304     AichiSR QXAFS
# Start     : 8.9544
# End       : 9.0544
# Dir       : Forward
# Points    : 300
# ScanTime  : 1.01549
# Date      : 13.04.23 22:32
# Ring Cur. : 25.6[mA]
12.7557	12.7558	0.406236	1.23303
12.7562	12.7553	0.404758	1.23516
12.7566	12.7548	0.403354	1.23561
12.7571	12.7544	0.404129	1.23308
12.7576	12.7539	0.405555	1.23045
12.7581	12.7534	0.405081	1.23223
12.7585	12.7529	0.404814	1.23628
12.759	12.7525	0.402989	1.23486
12.7595	12.752	0.404357	1.23273
12.7599	12.7516	0.40375	1.22936
12.7604	12.7511	0.404922	1.23482
12.7609	12.7506	0.406979	1.23564
12.7614	12.7501	0.406045	1.2356
12.7618	12.7497	0.405466	1.23276
12.7623	12.7492	0.405604	1.22949
12.7628	12.7487	0.405012	1.23279
12.7632	12.7483	0.406362	1.23528
12.7637	12.7478	0.405024	1.23413
12.7642	12.7473	0.404346	1.23058
12.7647	12.7469	0.404839	1.2321
12.7651	12.7464	0.405706	1.23167
12.7656	12.7459	0.406466	1.23244
12.7661	12.7454	0.404585	1.23267
12.7666	12.745	0.406191	1.23297
12.767	12.7445	0.405382	1.23056
12.7675	12.744	0.405293	1.231
12.768	12.7435	0.406015	1.23293
12.7684	12.7431	0.404518	1.23079
12.7689	12.7426	0.40392	1.22739
12.7694	12.7421	0.40592	1.22764
12.7699	12.7417	0.405215	1.22754
12.7703	12.7412	0.406384	1.23069
12.7708	12.7407	0.404396	1.22961
12.7713	12.7402	0.404751	1.22651
12.7717	12.7398	0.40496	1.22563
12.7722	12.7393	0.40497	1.2241
12.7727	12.7388	0.405847	1.22819
12.7732	12.7384	0.403946	1.2269
12.7736	12.7379	0.405082	1.22266
12.7741	12.7374	0.404736	1.22278
12.7746	12.7369	0.405867	1.22391
12.7751	12.7365	0.406222	1.22301
12.7755	12.736	0.404795	1.22268
12.776	12.7355	0.40602	1.21893
12.7765	12.735	0.405135	1.21965
12.7769	12.7345	0.406688	1.21888
12.7774	12.7341	0.405764	1.21909
12.7779	12.7336	0.4048	1.21701
12.7784	12.7331	0.405664	1.21154
12.7788	12.7327	0.405345	1.20958
12.7793	12.7322	0.405837	1.21133
12.7798	12.7317	0.40547	1.20955
12.7802	12.7312	0.404751	1.20474
12.7807	12.7308	0.404148	1.20097
12.7812	12.7303	0.404693	1.19886
12.7817	12.7298	0.405414	1.19122
12.7821	12.7293	0.405257	1.19151
12.7826	12.7289	0.402918	1.18554
12.7831	12.7284	0.403925	1.17479
12.7836	12.728	0.403897	1.16751
12.784	12.7275	0.404428	1.16076
12.7845	12.727	0.40372	1.14864
12.785	12.7265	0.401869	1.13244
12.7854	12.7261	0.40184	1.11085
12.7859	12.7256	0.399361	1.08229
12.7864	12.7251	0.399569	1.0468
12.7869	12.7246	0.399952	1.00408
12.7873	12.7241	0.397529	0.948669
12.7878	12.7237	0.399346	0.880913
12.7883	12.7232	0.402479	0.822119
12.7887	12.7227	0.404728	0.762777
12.7892	12.7223	0.40337	0.713643
12.7897	12.7218	0.402331	0.673209
12.7902	12.7214	0.403209	0.645853
12.7906	12.7209	0.404325	0.632479
12.7911	12.7204	0.404585	0.625053
12.7916	12.7199	0.404422	0.627705
12.7921	12.7195	0.403537	0.627852
12.7925	12.719	0.404066	0.630955
12.793	12.7185	0.405131	0.635934
12.7935	12.7181	0.403192	0.640923
12.7939	12.7176	0.403271	0.642569
12.7944	12.7171	0.403213	0.639989
12.7949	12.7166	0.404173	0.631059
12.7954	12.7162	0.403811	0.622991
12.7958	12.7157	0.403674	0.613832
12.7963	12.7152	0.403108	0.603387
12.7968	12.7147	0.403763	0.590513
12.7972	12.7143	0.402369	0.57644
12.7977	12.7138	0.403063	0.567578
12.7982	12.7133	0.403877	0.56014
12.7987	12.7128	0.403479	0.552347
12.7991	12.7124	0.403002	0.53826
12.7996	12.7119	0.40274	0.524037
12.8001	12.7115	0.402527	0.512948
12.8006	12.711	0.402144	0.500829
12.801	12.7105	0.402985	0.487209
12.8015	12.71	0.402381	0.469299
12.802	12.7095	0.400999	0.451612
12.8024	12.7091	0.404347	0.434071
12.8029	12.7086	0.403803	0.419921
12.8034	12.7082	0.40219	0.403357
12.8039	12.7077	0.402041	0.38618
12.8043	12.7072	0.400819	0.367958
12.8048	12.7067	0.404949	0.353557
12.8053	12.7062	0.40171	0.341151
12.8057	12.7058	0.401739	0.330013
12.8062	12.7053	0.40154	0.316491
12.8067	12.7048	0.399823	0.30522
12.8072	12.7043	0.401536	0.298058
12.8076	12.7038	0.403836	0.292008
12.8081	12.7034	0.401978	0.287293
12.8086	12.7029	0.400098	0.283879
12.8091	12.7024	0.402444	0.280728
12.8095	12.702	0.40101	0.282313
12.81	12.7015	0.401631	0.282941
12.8105	12.701	0.401479	0.288233
12.8109	12.7005	0.401112	0.290177
12.8114	12.7001	0.39973	0.292485
12.8119	12.6996	0.400422	0.299611
12.8124	12.6991	0.401479	0.304823
12.8128	12.6987	0.401972	0.309818
12.8133	12.6982	0.399687	0.313136
12.8138	12.6977	0.399423	0.314963
12.8142	12.6973	0.401599	0.319727
12.8147	12.6968	0.4	0.323371
12.8152	12.6963	0.400461	0.326172
12.8157	12.6959	0.401246	0.325811
12.8161	12.6954	0.400531	0.319334
12.8166	12.6949	0.401845	0.324506
12.8171	12.6944	0.4013	0.323385
12.8176	12.6939	0.400275	0.319331
12.818	12.6935	0.400211	0.314188
12.8185	12.693	0.399176	0.308324
12.819	12.6925	0.401075	0.302336
12.8194	12.6921	0.400889	0.298401
12.8199	12.6916	0.399617	0.292926
12.8204	12.6912	0.398307	0.287225
12.8209	12.6907	0.399046	0.279347
12.8213	12.6902	0.399175	0.276411
12.8218	12.6897	0.399482	0.275745
12.8223	12.6893	0.399241	0.275085
12.8227	12.6888	0.39861	0.27508
12.8232	12.6883	0.397095	0.27483
12.8237	12.6879	0.400442	0.278013
12.8242	12.6874	0.398876	0.283451
12.8246	12.6869	0.397708	0.286541
12.8251	12.6864	0.397392	0.289466
12.8256	12.686	0.396554	0.292901
12.8261	12.6855	0.397044	0.297556
12.8265	12.685	0.397618	0.303771
12.827	12.6845	0.397959	0.305837
12.8275	12.684	0.396455	0.308889
12.8279	12.6836	0.395703	0.310896
12.8284	12.6831	0.397736	0.314146
12.8289	12.6826	0.39656	0.317832
12.8294	12.6822	0.39756	0.321336
12.8298	12.6817	0.397059	0.323912
12.8303	12.6812	0.395168	0.325077
12.8308	12.6807	0.397811	0.327809
12.8312	12.6803	0.399209	0.333721
12.8317	12.6798	0.397161	0.336538
12.8322	12.6793	0.398393	0.33711
12.8327	12.6789	0.398157	0.33887
12.8331	12.6784	0.397764	0.341191
12.8336	12.6779	0.398203	0.344354
12.8341	12.6774	0.397595	0.343463
12.8346	12.677	0.397201	0.343096
12.835	12.6765	0.398233	0.342827
12.8355	12.676	0.398211	0.341513
12.836	12.6755	0.397107	0.343633
12.8364	12.675	0.397162	0.342474
12.8369	12.6746	0.397836	0.339881
12.8374	12.6741	0.397116	0.338934
12.8379	12.6736	0.399305	0.336891
12.8383	12.6731	0.398618	0.33863
12.8388	12.6727	0.39664	0.337818
12.8393	12.6722	0.397443	0.334845
12.8397	12.6718	0.396264	0.33158
12.8402	12.6713	0.398731	0.33091
12.8407	12.6708	0.397094	0.331673
12.8412	12.6703	0.397284	0.328053
12.8416	12.6699	0.395008	0.324509
12.8421	12.6694	0.395927	0.320835
12.8426	12.6689	0.397017	0.320242
12.8431	12.6685	0.397636	0.318824
12.8435	12.668	0.394642	0.31474
12.844	12.6675	0.395418	0.311871
12.8445	12.6671	0.395497	0.307927
12.8449	12.6666	0.397206	0.306965
12.8454	12.6661	0.396836	0.306044
12.8459	12.6656	0.394891	0.302801
12.8464	12.6652	0.394662	0.298971
12.8468	12.6647	0.397139	0.295698
12.8473	12.6642	0.396985	0.295505
12.8478	12.6637	0.395576	0.293923
12.8482	12.6633	0.394253	0.290931
12.8487	12.6628	0.39487	0.288133
12.8492	12.6623	0.396255	0.285672
12.8497	12.6619	0.395093	0.282924
12.8501	12.6614	0.395683	0.283296
12.8506	12.6609	0.393784	0.282044
12.8511	12.6605	0.393239	0.277409
12.8516	12.66	0.394658	0.27559
12.852	12.6595	0.39329	0.274024
12.8525	12.6591	0.394983	0.273952
12.853	12.6586	0.391963	0.27287
12.8534	12.6581	0.391684	0.270271
12.8539	12.6577	0.392187	0.269135
12.8544	12.6572	0.393048	0.270558
12.8549	12.6567	0.393738	0.271765
12.8553	12.6562	0.392411	0.272238
12.8558	12.6557	0.391669	0.270484
12.8563	12.6553	0.3941	0.270915
12.8567	12.6548	0.392907	0.273254
12.8572	12.6543	0.393337	0.276108
12.8577	12.6538	0.39337	0.277055
12.8582	12.6534	0.392357	0.278109
12.8586	12.6529	0.392737	0.27894
12.8591	12.6524	0.393862	0.282207
12.8596	12.652	0.393609	0.285935
12.8601	12.6515	0.392045	0.28644
12.8605	12.651	0.390997	0.288791
12.861	12.6505	0.393764	0.29092
12.8615	12.65	0.392597	0.293902
12.8619	12.6496	0.392091	0.298826
12.8624	12.6491	0.390893	0.298889
12.8629	12.6486	0.39136	0.301224
12.8634	12.6482	0.390519	0.301752
12.8638	12.6477	0.389324	0.304879
12.8643	12.6472	0.391503	0.307809
12.8648	12.6467	0.388903	0.307046
12.8652	12.6463	0.387582	0.307731
12.8657	12.6458	0.388077	0.308568
12.8662	12.6453	0.387095	0.31037
12.8667	12.6448	0.388235	0.312803
12.8671	12.6443	0.386301	0.313351
12.8676	12.6439	0.38836	0.3137
12.8681	12.6434	0.388311	0.31518
12.8686	12.6429	0.394716	0.319109
12.869	12.6425	0.392612	0.319449
12.8695	12.642	0.391096	0.319273
12.87	12.6416	0.389142	0.316526
12.8704	12.6411	0.391023	0.318516
12.8709	12.6406	0.390684	0.318755
12.8714	12.6401	0.390902	0.318583
12.8719	12.6397	0.390441	0.318156
12.8723	12.6392	0.390301	0.317098
12.8728	12.6387	0.390375	0.315818
12.8733	12.6383	0.390119	0.315111
12.8737	12.6378	0.390748	0.316767
12.8742	12.6373	0.389145	0.315936
12.8747	12.6369	0.38782	0.313142
12.8752	12.6364	0.390261	0.31265
12.8756	12.6359	0.389739	0.312673
12.8761	12.6354	0.390115	0.314029
12.8766	12.6349	0.389012	0.312505
12.8771	12.6345	0.389187	0.309779
12.8775	12.634	0.389839	0.309499
12.878	12.6335	0.389977	0.309689
12.8785	12.6331	0.389875	0.310693
12.8789	12.6326	0.388389	0.310365
12.8794	12.6321	0.38946	0.30917
12.8799	12.6317	0.390369	0.310347
12.8804	12.6312	0.391123	0.311749
12.8808	12.6307	0.390444	0.311409
12.8813	12.6302	0.390455	0.312586
12.8818	12.6298	0.390615	0.311549
12.8822	12.6293	0.390381	0.311159
12.8827	12.6288	0.391557	0.313077
12.8832	12.6284	0.391241	0.313656
12.8837	12.6279	0.39072	0.313133
12.8841	12.6274	0.38942	0.310843
12.8846	12.6269	0.39205	0.312917
12.8851	12.6265	0.391286	0.311896
12.8856	12.626	0.390858	0.312556
12.886	12.6255	0.390369	0.311316
12.8865	12.625	0.392776	0.310723
12.887	12.6245	0.392238	0.309801
12.8874	12.6241	0.391241	0.30933
12.8879	12.6236	0.391009	0.309993
12.8884	12.6231	0.390116	0.308753
12.8889	12.6227	0.390913	0.305129
12.8893	12.6222	0.392953	0.304843
12.8898	12.6217	0.392713	0.306012
12.8903	12.6212	0.390724	0.307299
12.8907	12.6208	0.391587	0.305027
12.8912	12.6203	0.39101	0.303218
12.8917	12.6198	0.392766	0.303442
12.8922	12.6193	0.391114	0.3057
12.8926	12.6189	0.392578	0.305252
12.8931	12.6184	0.389719	0.304575
12.8936	12.6179	0.389911	0.303181
12.8941	12.6175	0.393766	0.303571
12.8945	12.617	0.391135	0.30454
12.895	12.6165	0.392197	0.304896
12.8955	12.616	0.391456	0.304321
12.8959	12.6156	0.392038	0.303517
12.8964	12.6151	0.392769	0.303773
12.8969	12.6146	0.392405	0.303442
12.8974	12.6141	0.39302	0.304702
12.8978	12.6137	0.392291	0.302434
12.8983	12.6132	0.389564	0.300944
12.8988	12.6127	0.392732	0.30011
