# 1304     AichiSR QXAFS
# Start     : 8.9544
# End       : 9.0544
# Dir       : Forward
# Points    : 300
# ScanTime  : 1.01549
# Date      : 13.04.23 22:22
# Ring Cur. : 25.4[mA]
12.7557	12.7557	0.402179	1.22207
12.7562	12.7552	0.401603	1.21877
12.7566	12.7548	0.401082	1.22216
12.7571	12.7543	0.402862	1.22411
12.7576	12.7538	0.400342	1.22362
12.7581	12.7533	0.400433	1.22193
12.7585	12.7529	0.399992	1.21918
12.759	12.7524	0.401109	1.21875
12.7595	12.752	0.399297	1.22269
12.7599	12.7515	0.398771	1.22109
12.7604	12.751	0.400405	1.22005
12.7609	12.7505	0.400821	1.21751
12.7614	12.7501	0.401484	1.21996
12.7618	12.7496	0.401664	1.21902
12.7623	12.7491	0.399309	1.22012
12.7628	12.7487	0.399826	1.21723
12.7632	12.7482	0.399798	1.21923
12.7637	12.7477	0.401532	1.21564
12.7642	12.7473	0.400781	1.2166
12.7647	12.7468	0.399209	1.2181
12.7651	12.7463	0.399495	1.21567
12.7656	12.7458	0.399611	1.21328
12.7661	12.7454	0.401201	1.21348
12.7666	12.7449	0.400348	1.21696
12.767	12.7444	0.398898	1.21432
12.7675	12.7439	0.397552	1.2112
12.768	12.7435	0.398328	1.20953
12.7684	12.743	0.39959	1.21003
12.7689	12.7425	0.399789	1.21436
12.7694	12.7421	0.398304	1.21154
12.7699	12.7416	0.399004	1.21054
12.7703	12.7411	0.399133	1.20705
12.7708	12.7406	0.398723	1.21052
12.7713	12.7402	0.399253	1.20984
12.7717	12.7397	0.396724	1.20872
12.7722	12.7392	0.399084	1.20474
12.7727	12.7388	0.398873	1.2044
12.7732	12.7383	0.399225	1.2031
12.7736	12.7378	0.398729	1.20533
12.7741	12.7374	0.396491	1.2022
12.7746	12.7369	0.397267	1.19913
12.7751	12.7364	0.398489	1.19783
12.7755	12.7359	0.398696	1.19733
12.776	12.7354	0.398914	1.19833
12.7765	12.735	0.397109	1.19448
12.7769	12.7345	0.397922	1.19432
12.7774	12.734	0.396485	1.18986
12.7779	12.7335	0.397059	1.18713
12.7784	12.733	0.39808	1.18796
12.7788	12.7326	0.394677	1.18642
12.7793	12.7321	0.395516	1.18078
12.7798	12.7317	0.395131	1.17901
12.7802	12.7312	0.396043	1.17635
12.7807	12.7307	0.396119	1.17664
12.7812	12.7302	0.394768	1.17003
12.7817	12.7297	0.39532	1.16439
12.7821	12.7293	0.395155	1.16023
12.7826	12.7288	0.397027	1.15434
12.7831	12.7284	0.395386	1.15199
12.7836	12.7279	0.393976	1.13988
12.784	12.7274	0.393247	1.1286
12.7845	12.7269	0.394287	1.11547
12.785	12.7265	0.393742	1.10159
12.7854	12.726	0.393426	1.08348
12.7859	12.7255	0.390317	1.05018
12.7864	12.725	0.389137	1.00586
12.7869	12.7245	0.38922	0.964388
12.7873	12.7241	0.388896	0.91396
12.7878	12.7236	0.390884	0.853875
12.7883	12.7231	0.39062	0.791261
12.7887	12.7227	0.393482	0.733249
12.7892	12.7222	0.394295	0.686059
12.7897	12.7218	0.395057	0.653877
12.7902	12.7213	0.394317	0.631355
12.7906	12.7208	0.391799	0.618204
12.7911	12.7203	0.393168	0.610403
12.7916	12.7199	0.395889	0.609395
12.7921	12.7194	0.398478	0.619265
12.7925	12.7189	0.3956	0.620415
12.793	12.7185	0.392342	0.622329
12.7935	12.718	0.39424	0.624375
12.7939	12.7175	0.394794	0.621949
12.7944	12.7171	0.393642	0.620103
12.7949	12.7166	0.395627	0.617419
12.7954	12.7161	0.392325	0.606488
12.7958	12.7156	0.39189	0.593987
12.7963	12.7151	0.393798	0.583091
12.7968	12.7147	0.393868	0.574624
12.7972	12.7142	0.393901	0.566242
12.7977	12.7137	0.391758	0.555074
12.7982	12.7132	0.39201	0.542585
12.7987	12.7128	0.391981	0.532222
12.7991	12.7123	0.391147	0.521678
12.7996	12.7119	0.392731	0.512841
12.8001	12.7114	0.392034	0.497756
12.8006	12.7109	0.393069	0.484434
12.801	12.7104	0.393415	0.46854
12.8015	12.7099	0.393433	0.454689
12.802	12.7095	0.394171	0.440478
12.8024	12.709	0.392306	0.422362
12.8029	12.7086	0.393538	0.405057
12.8034	12.7081	0.394267	0.387724
12.8039	12.7076	0.395031	0.374112
12.8043	12.7071	0.394997	0.360488
12.8048	12.7066	0.392052	0.345119
12.8053	12.7062	0.392876	0.328867
12.8057	12.7057	0.39377	0.318087
12.8062	12.7052	0.394565	0.308226
12.8067	12.7047	0.395552	0.299691
12.8072	12.7042	0.392374	0.291376
12.8076	12.7038	0.394016	0.28427
12.8081	12.7033	0.395047	0.279718
12.8086	12.7028	0.392914	0.277416
12.8091	12.7024	0.396282	0.279619
12.8095	12.7019	0.392896	0.277954
12.81	12.7014	0.394613	0.279791
12.8105	12.7009	0.395584	0.281853
12.8109	12.7005	0.395632	0.286698
12.8114	12.7	0.395149	0.291578
12.8119	12.6995	0.395424	0.297441
12.8124	12.6991	0.394913	0.299693
12.8128	12.6986	0.396038	0.304605
12.8133	12.6982	0.394898	0.308874
12.8138	12.6977	0.395617	0.315074
12.8142	12.6972	0.394651	0.317003
12.8147	12.6967	0.394991	0.317249
12.8152	12.6962	0.397438	0.318491
12.8157	12.6958	0.394426	0.320073
12.8161	12.6953	0.395525	0.321716
12.8166	12.6948	0.393919	0.320057
12.8171	12.6943	0.395681	0.314124
12.8176	12.6939	0.395455	0.312894
12.818	12.6934	0.396032	0.309016
12.8185	12.6929	0.395491	0.305033
12.819	12.6925	0.393677	0.299119
12.8194	12.692	0.395077	0.290837
12.8199	12.6915	0.395878	0.286815
12.8204	12.6911	0.395023	0.282316
12.8209	12.6906	0.396963	0.280196
12.8213	12.6901	0.396217	0.275402
12.8218	12.6897	0.394831	0.271393
12.8223	12.6892	0.396346	0.271416
12.8227	12.6887	0.395653	0.272814
12.8232	12.6883	0.396199	0.275283
12.8237	12.6878	0.395198	0.27817
12.8242	12.6873	0.39327	0.279173
12.8246	12.6868	0.396651	0.283426
12.8251	12.6864	0.394908	0.287821
12.8256	12.6859	0.394835	0.293597
12.8261	12.6854	0.394399	0.297702
12.8265	12.6849	0.392752	0.29873
12.827	12.6844	0.395149	0.302195
12.8275	12.684	0.392987	0.306881
12.8279	12.6835	0.392847	0.311259
12.8284	12.683	0.393378	0.313569
12.8289	12.6826	0.39317	0.314963
12.8294	12.6821	0.393623	0.318171
12.8298	12.6816	0.396758	0.323282
12.8303	12.6812	0.394758	0.325929
12.8308	12.6807	0.394974	0.329559
12.8312	12.6802	0.395794	0.330769
12.8317	12.6797	0.398434	0.332856
12.8322	12.6793	0.397478	0.338084
12.8327	12.6788	0.39734	0.340423
12.8331	12.6783	0.396243	0.340399
12.8336	12.6779	0.395125	0.339766
12.8341	12.6774	0.398343	0.34085
12.8346	12.6769	0.396105	0.34081
12.835	12.6764	0.39642	0.343749
12.8355	12.6759	0.394706	0.342678
12.836	12.6755	0.396381	0.340622
12.8364	12.675	0.39686	0.33889
12.8369	12.6745	0.397646	0.33839
12.8374	12.674	0.396809	0.340389
12.8379	12.6735	0.396463	0.337149
12.8383	12.6731	0.394959	0.334851
12.8388	12.6726	0.398192	0.334578
12.8393	12.6722	0.397691	0.333459
12.8397	12.6717	0.394737	0.332915
12.8402	12.6712	0.394243	0.330727
12.8407	12.6707	0.395469	0.328173
12.8412	12.6703	0.39778	0.324581
12.8416	12.6698	0.397451	0.323984
12.8421	12.6693	0.396074	0.323133
12.8426	12.6689	0.396354	0.320847
12.8431	12.6684	0.395438	0.315082
12.8435	12.6679	0.396514	0.312719
12.844	12.6675	0.396148	0.312483
12.8445	12.667	0.396212	0.310815
12.8449	12.6665	0.395431	0.307465
12.8454	12.666	0.396847	0.303386
12.8459	12.6656	0.397867	0.300733
12.8464	12.6651	0.395682	0.300549
12.8468	12.6646	0.396574	0.298894
12.8473	12.6641	0.396018	0.295746
12.8478	12.6637	0.395521	0.291387
12.8482	12.6632	0.396227	0.289589
12.8487	12.6627	0.396689	0.289162
12.8492	12.6623	0.39522	0.287585
12.8497	12.6618	0.394987	0.285196
12.8501	12.6613	0.394895	0.281091
12.8506	12.6609	0.396149	0.279896
12.8511	12.6604	0.39633	0.278806
12.8516	12.6599	0.395466	0.278711
12.852	12.6595	0.395109	0.27652
12.8525	12.659	0.39369	0.273106
12.853	12.6585	0.395627	0.272541
12.8534	12.6581	0.395536	0.271317
12.8539	12.6576	0.395697	0.273115
12.8544	12.6571	0.393361	0.270741
12.8549	12.6566	0.394288	0.270556
12.8553	12.6561	0.394154	0.271309
12.8558	12.6557	0.395517	0.271628
12.8563	12.6552	0.395935	0.27487
12.8567	12.6547	0.394893	0.27513
12.8572	12.6542	0.393753	0.275435
12.8577	12.6537	0.396488	0.278492
12.8582	12.6533	0.394113	0.281853
12.8586	12.6528	0.393676	0.283053
12.8591	12.6524	0.394909	0.284812
12.8596	12.6519	0.394178	0.285044
12.8601	12.6514	0.395226	0.288127
12.8605	12.6509	0.395746	0.293438
12.861	12.6504	0.395466	0.294682
12.8615	12.65	0.393708	0.296459
12.8619	12.6495	0.394024	0.297455
12.8624	12.649	0.394103	0.300963
12.8629	12.6486	0.393096	0.303847
12.8634	12.6481	0.394774	0.306703
12.8638	12.6476	0.393301	0.308228
12.8643	12.6471	0.39348	0.306834
12.8648	12.6467	0.391012	0.309733
12.8652	12.6462	0.389405	0.310121
12.8657	12.6457	0.388708	0.312409
12.8662	12.6452	0.389975	0.313199
12.8667	12.6447	0.387942	0.311728
12.8671	12.6443	0.39109	0.313373
12.8676	12.6438	0.391199	0.317153
12.8681	12.6433	0.389179	0.317913
12.8686	12.6429	0.39133	0.31853
12.869	12.6424	0.39064	0.317465
12.8695	12.642	0.393211	0.31936
12.87	12.6415	0.391353	0.320075
12.8704	12.641	0.393837	0.321898
12.8709	12.6405	0.393127	0.318816
12.8714	12.6401	0.39281	0.31879
12.8719	12.6396	0.393365	0.31844
12.8723	12.6391	0.393931	0.319677
12.8728	12.6387	0.391596	0.319792
12.8733	12.6382	0.390758	0.317401
12.8737	12.6377	0.392819	0.315911
12.8742	12.6373	0.393259	0.316399
12.8747	12.6368	0.392226	0.316819
12.8752	12.6363	0.391775	0.316213
12.8756	12.6358	0.390693	0.31486
12.8761	12.6354	0.390675	0.313081
12.8766	12.6349	0.392606	0.312692
12.8771	12.6344	0.393104	0.313778
12.8775	12.6339	0.392255	0.312944
12.878	12.6335	0.390943	0.311505
12.8785	12.633	0.391478	0.309713
12.8789	12.6325	0.390835	0.309568
12.8794	12.6321	0.39084	0.311689
12.8799	12.6316	0.389621	0.313205
12.8804	12.6311	0.390809	0.312286
12.8808	12.6306	0.390457	0.310371
12.8813	12.6302	0.392924	0.311465
12.8818	12.6297	0.391054	0.312871
12.8822	12.6292	0.389958	0.312824
12.8827	12.6288	0.389917	0.311746
12.8832	12.6283	0.391966	0.311381
12.8837	12.6278	0.390784	0.310041
12.8841	12.6274	0.391104	0.312784
12.8846	12.6269	0.389529	0.313812
12.8851	12.6264	0.389917	0.311577
12.8856	12.6259	0.389526	0.309965
12.886	12.6254	0.391124	0.310521
12.8865	12.6249	0.390569	0.310949
12.887	12.6245	0.388752	0.30915
12.8874	12.624	0.39031	0.308856
12.8879	12.6235	0.389705	0.306815
12.8884	12.6231	0.391514	0.304971
12.8889	12.6226	0.389877	0.307162
12.8893	12.6221	0.388256	0.305757
12.8898	12.6217	0.389873	0.303857
12.8903	12.6212	0.388918	0.302234
12.8907	12.6207	0.389854	0.303109
12.8912	12.6202	0.389181	0.303936
12.8917	12.6197	0.387687	0.304286
12.8922	12.6193	0.389427	0.303074
12.8926	12.6188	0.390028	0.300766
12.8931	12.6184	0.391542	0.300993
12.8936	12.6179	0.389316	0.303158
12.8941	12.6174	0.38828	0.304547
12.8945	12.6169	0.388548	0.301293
12.895	12.6164	0.387305	0.300324
12.8955	12.616	0.388522	0.30103
12.8959	12.6155	0.389356	0.302203
12.8964	12.615	0.386288	0.301536
12.8969	12.6145	0.386524	0.300356
12.8974	12.6141	0.388638	0.299798
12.8978	12.6136	0.388821	0.298878
12.8983	12.6131	0.387463	0.301401
12.8988	12.6127	0.387681	0.299847
