# 1304     AichiSR QXAFS
# Start     : 8.9544
# End       : 9.0544
# Dir       : Forward
# Points    : 300
# ScanTime  : 1.01549
# Date      : 13.04.23 22:32
# Ring Cur. : 25.6[mA]
12.7557	12.7558	0.402608	1.23121
12.7562	12.7553	0.402555	1.22783
12.7566	12.7548	0.401675	1.22756
12.7571	12.7544	0.402277	1.22634
12.7576	12.7539	0.403357	1.22778
12.7581	12.7534	0.402387	1.22693
12.7585	12.7529	0.40267	1.22624
12.759	12.7525	0.402873	1.22685
12.7595	12.752	0.402955	1.22893
12.7599	12.7516	0.403806	1.23155
12.7604	12.7511	0.402114	1.23181
12.7609	12.7506	0.401255	1.22781
12.7614	12.7501	0.403051	1.2288
12.7618	12.7497	0.403862	1.22696
12.7623	12.7492	0.404201	1.23168
12.7628	12.7488	0.403181	1.23171
12.7632	12.7483	0.404759	1.22835
12.7637	12.7478	0.404356	1.22697
12.7642	12.7473	0.404395	1.22692
12.7647	12.7469	0.403861	1.23381
12.7651	12.7464	0.404059	1.23051
12.7656	12.7459	0.402315	1.22764
12.7661	12.7454	0.406528	1.22908
12.7666	12.745	0.404214	1.22825
12.767	12.7445	0.404271	1.22913
12.7675	12.744	0.403502	1.22764
12.768	12.7435	0.403226	1.22651
12.7684	12.7431	0.40521	1.22501
12.7689	12.7426	0.405339	1.22856
12.7694	12.7421	0.405878	1.23058
12.7699	12.7417	0.40387	1.2283
12.7703	12.7412	0.405479	1.22441
12.7708	12.7407	0.405055	1.22317
12.7713	12.7402	0.405149	1.22634
12.7717	12.7398	0.404859	1.22721
12.7722	12.7393	0.403491	1.22444
12.7727	12.7389	0.403767	1.22158
12.7732	12.7384	0.40552	1.22131
12.7736	12.7379	0.404206	1.22354
12.7741	12.7374	0.404693	1.22234
12.7746	12.737	0.403172	1.22329
12.7751	12.7365	0.4033	1.21731
12.7755	12.736	0.40476	1.21638
12.776	12.7355	0.404813	1.21704
12.7765	12.735	0.405751	1.21814
12.7769	12.7345	0.403818	1.21899
12.7774	12.7341	0.404472	1.21256
12.7779	12.7336	0.405334	1.21002
12.7784	12.7331	0.403998	1.21047
12.7788	12.7327	0.40418	1.21039
12.7793	12.7322	0.403614	1.20666
12.7798	12.7317	0.404279	1.20211
12.7802	12.7313	0.404495	1.2011
12.7807	12.7308	0.404161	1.19873
12.7812	12.7303	0.40354	1.19732
12.7817	12.7298	0.402716	1.19536
12.7821	12.7294	0.404946	1.18726
12.7826	12.7289	0.405822	1.18259
12.7831	12.7284	0.403655	1.17751
12.7836	12.728	0.404217	1.17134
12.784	12.7275	0.402478	1.15975
12.7845	12.727	0.402644	1.14429
12.785	12.7265	0.403373	1.131
12.7854	12.7261	0.402393	1.1124
12.7859	12.7256	0.39913	1.08572
12.7864	12.7251	0.399063	1.05006
12.7869	12.7246	0.397041	1.00466
12.7873	12.7242	0.398955	0.950555
12.7878	12.7237	0.400047	0.889424
12.7883	12.7232	0.400555	0.827355
12.7887	12.7227	0.403408	0.766048
12.7892	12.7223	0.404344	0.712532
12.7897	12.7218	0.405689	0.674781
12.7902	12.7214	0.402736	0.649707
12.7906	12.7209	0.403006	0.63458
12.7911	12.7204	0.403566	0.626675
12.7916	12.7199	0.403351	0.622874
12.7921	12.7195	0.404885	0.625545
12.7925	12.719	0.405097	0.633317
12.793	12.7185	0.403274	0.637939
12.7935	12.7181	0.403719	0.641278
12.7939	12.7176	0.403531	0.642026
12.7944	12.7171	0.404581	0.639401
12.7949	12.7167	0.40578	0.63639
12.7954	12.7162	0.404262	0.62693
12.7958	12.7157	0.404027	0.615125
12.7963	12.7152	0.403227	0.602997
12.7968	12.7147	0.40541	0.59015
12.7972	12.7143	0.405484	0.580497
12.7977	12.7138	0.40293	0.572326
12.7982	12.7133	0.403051	0.559948
12.7987	12.7128	0.403352	0.5484
12.7991	12.7124	0.404337	0.538513
12.7996	12.7119	0.405561	0.528018
12.8001	12.7115	0.40193	0.515744
12.8006	12.711	0.402714	0.5003
12.801	12.7105	0.40315	0.485813
12.8015	12.71	0.405687	0.470091
12.802	12.7096	0.403511	0.455967
12.8024	12.7091	0.403524	0.438542
12.8029	12.7086	0.401857	0.421282
12.8034	12.7082	0.403328	0.401311
12.8039	12.7077	0.404008	0.385537
12.8043	12.7072	0.403425	0.370998
12.8048	12.7067	0.403111	0.357232
12.8053	12.7062	0.400515	0.341795
12.8057	12.7058	0.402256	0.327392
12.8062	12.7053	0.402958	0.315959
12.8067	12.7048	0.40303	0.307431
12.8072	12.7043	0.401274	0.300348
12.8076	12.7038	0.402895	0.29202
12.8081	12.7034	0.401202	0.284892
12.8086	12.7029	0.403777	0.282449
12.8091	12.7024	0.402412	0.283759
12.8095	12.702	0.400739	0.284773
12.81	12.7015	0.400653	0.2844
12.8105	12.701	0.40158	0.286359
12.8109	12.7005	0.402095	0.289928
12.8114	12.7001	0.402398	0.295746
12.8119	12.6996	0.401826	0.300718
12.8124	12.6991	0.401506	0.305266
12.8128	12.6987	0.402145	0.307828
12.8133	12.6982	0.402584	0.312543
12.8138	12.6978	0.402609	0.318063
12.8142	12.6973	0.400615	0.321267
12.8147	12.6968	0.400471	0.322612
12.8152	12.6963	0.400266	0.322449
12.8157	12.6959	0.401222	0.324923
12.8161	12.6954	0.402489	0.325479
12.8166	12.6949	0.399741	0.326158
12.8171	12.6944	0.399319	0.322028
12.8176	12.6939	0.400603	0.317343
12.818	12.6935	0.401339	0.313405
12.8185	12.693	0.401765	0.310649
12.819	12.6925	0.400087	0.304142
12.8194	12.6921	0.398997	0.297713
12.8199	12.6916	0.400219	0.291766
12.8204	12.6912	0.400896	0.286795
12.8209	12.6907	0.401516	0.281835
12.8213	12.6902	0.399142	0.279027
12.8218	12.6897	0.400639	0.276515
12.8223	12.6893	0.401046	0.272334
12.8227	12.6888	0.40043	0.274073
12.8232	12.6883	0.401578	0.277383
12.8237	12.6879	0.398478	0.280557
12.8242	12.6874	0.39882	0.281481
12.8246	12.6869	0.397974	0.283827
12.8251	12.6864	0.399128	0.289264
12.8256	12.686	0.398563	0.294774
12.8261	12.6855	0.397273	0.29861
12.8265	12.685	0.396043	0.301391
12.827	12.6845	0.395746	0.303488
12.8275	12.684	0.398534	0.309382
12.8279	12.6836	0.398444	0.314462
12.8284	12.6831	0.396317	0.315616
12.8289	12.6826	0.396648	0.318547
12.8294	12.6822	0.397832	0.319471
12.8298	12.6817	0.398029	0.323525
12.8303	12.6812	0.399059	0.328184
12.8308	12.6807	0.39755	0.331383
12.8312	12.6803	0.397741	0.333397
12.8317	12.6798	0.397	0.335189
12.8322	12.6793	0.399926	0.339327
12.8327	12.6789	0.398957	0.342138
12.8331	12.6784	0.397825	0.34333
12.8336	12.6779	0.399129	0.343489
12.8341	12.6775	0.399797	0.343155
12.8346	12.677	0.400085	0.343992
12.835	12.6765	0.397374	0.345137
12.8355	12.676	0.397364	0.34363
12.836	12.6755	0.398021	0.342077
12.8364	12.6751	0.398931	0.34068
12.8369	12.6746	0.398631	0.341362
12.8374	12.6741	0.397514	0.342047
12.8379	12.6736	0.398676	0.339243
12.8383	12.6731	0.396418	0.338257
12.8388	12.6727	0.397476	0.336977
12.8393	12.6722	0.398625	0.335074
12.8397	12.6718	0.399423	0.334733
12.8402	12.6713	0.39706	0.33189
12.8407	12.6708	0.397528	0.329696
12.8412	12.6703	0.396344	0.324691
12.8416	12.6699	0.397556	0.325638
12.8421	12.6694	0.398095	0.324572
12.8426	12.6689	0.39576	0.322347
12.8431	12.6685	0.396911	0.318064
12.8435	12.668	0.398006	0.314518
12.844	12.6675	0.398655	0.312529
12.8445	12.6671	0.397351	0.311088
12.8449	12.6666	0.396451	0.308218
12.8454	12.6661	0.39623	0.304345
12.8459	12.6656	0.396742	0.301113
12.8464	12.6652	0.39705	0.299488
12.8468	12.6647	0.39768	0.300148
12.8473	12.6642	0.39563	0.296933
12.8478	12.6637	0.396697	0.293972
12.8482	12.6633	0.397839	0.290733
12.8487	12.6628	0.396844	0.290337
12.8492	12.6623	0.397631	0.289549
12.8497	12.6619	0.393991	0.285504
12.8501	12.6614	0.394309	0.283526
12.8506	12.6609	0.396417	0.279969
12.8511	12.6605	0.395365	0.278304
12.8516	12.66	0.396571	0.278529
12.852	12.6595	0.394533	0.276203
12.8525	12.6591	0.393012	0.273233
12.853	12.6586	0.395656	0.272922
12.8534	12.6581	0.394909	0.27238
12.8539	12.6577	0.394724	0.272691
12.8544	12.6572	0.392725	0.272391
12.8549	12.6567	0.394709	0.270208
12.8553	12.6562	0.394158	0.271293
12.8558	12.6557	0.394065	0.272596
12.8563	12.6553	0.394945	0.274648
12.8567	12.6548	0.393089	0.275952
12.8572	12.6543	0.392939	0.27502
12.8577	12.6538	0.395437	0.276586
12.8582	12.6534	0.396257	0.280303
12.8586	12.6529	0.393729	0.284229
12.8591	12.6524	0.39377	0.284679
12.8596	12.652	0.393498	0.285227
12.8601	12.6515	0.395257	0.287626
12.8605	12.651	0.394391	0.291177
12.861	12.6505	0.395013	0.295173
12.8615	12.65	0.393024	0.294553
12.8619	12.6496	0.391596	0.296663
12.8624	12.6491	0.393775	0.299707
12.8629	12.6487	0.392588	0.302236
12.8634	12.6482	0.392862	0.305492
12.8638	12.6477	0.391533	0.306436
12.8643	12.6472	0.390751	0.30633
12.8648	12.6467	0.391093	0.306568
12.8652	12.6463	0.38942	0.310112
12.8657	12.6458	0.389288	0.311569
12.8662	12.6453	0.38832	0.310896
12.8667	12.6448	0.387103	0.310804
12.8671	12.6444	0.389557	0.312939
12.8676	12.6439	0.388398	0.315677
12.8681	12.6434	0.390111	0.317135
12.8686	12.6429	0.389691	0.317623
12.869	12.6425	0.390187	0.315772
12.8695	12.642	0.392312	0.316144
12.87	12.6416	0.391482	0.318987
12.8704	12.6411	0.391989	0.321064
12.8709	12.6406	0.391122	0.319392
12.8714	12.6401	0.38969	0.31776
12.8719	12.6397	0.393239	0.318455
12.8723	12.6392	0.392638	0.318415
12.8728	12.6387	0.390815	0.318136
12.8733	12.6383	0.389279	0.317614
12.8737	12.6378	0.389194	0.314354
12.8742	12.6373	0.3915	0.313046
12.8747	12.6369	0.390567	0.314883
12.8752	12.6364	0.390103	0.315059
12.8756	12.6359	0.38918	0.312622
12.8761	12.6354	0.389659	0.310338
12.8766	12.635	0.392361	0.311703
12.8771	12.6345	0.395216	0.315972
12.8775	12.634	0.390365	0.312823
12.878	12.6335	0.390161	0.310994
12.8785	12.6331	0.388986	0.309242
12.8789	12.6326	0.389766	0.309619
12.8794	12.6321	0.389775	0.310669
12.8799	12.6317	0.389159	0.312098
12.8804	12.6312	0.388029	0.309403
12.8808	12.6307	0.389625	0.309737
12.8813	12.6302	0.390599	0.310072
12.8818	12.6298	0.388984	0.310852
12.8822	12.6293	0.388162	0.312095
12.8827	12.6288	0.388779	0.311162
12.8832	12.6284	0.387477	0.30949
12.8837	12.6279	0.388891	0.310387
12.8841	12.6274	0.390471	0.312134
12.8846	12.6269	0.390072	0.311324
12.8851	12.6265	0.387639	0.310852
12.8856	12.626	0.387408	0.308409
12.886	12.6255	0.390613	0.308774
12.8865	12.625	0.389774	0.3091
12.887	12.6246	0.387221	0.309515
12.8874	12.6241	0.388628	0.308722
12.8879	12.6236	0.388651	0.306332
12.8884	12.6231	0.390573	0.305227
12.8889	12.6227	0.389251	0.305829
12.8893	12.6222	0.388362	0.305314
12.8898	12.6217	0.388482	0.303461
12.8903	12.6213	0.389434	0.303242
12.8907	12.6208	0.389704	0.303279
12.8912	12.6203	0.390268	0.304003
12.8917	12.6198	0.389278	0.303929
12.8922	12.6194	0.390625	0.303553
12.8926	12.6189	0.389531	0.302475
12.8931	12.6184	0.390292	0.301892
12.8936	12.618	0.389755	0.303551
12.8941	12.6175	0.389303	0.304341
12.8945	12.617	0.390133	0.302927
12.895	12.6165	0.389023	0.301128
12.8955	12.616	0.390992	0.302929
12.8959	12.6156	0.391498	0.303915
12.8964	12.6151	0.389921	0.303582
12.8969	12.6146	0.390424	0.302992
12.8974	12.6141	0.38947	0.301251
12.8978	12.6137	0.390227	0.301632
12.8983	12.6132	0.389094	0.30136
12.8988	12.6127	0.390141	0.301281
