# 1304     AichiSR QXAFS
# Start     : 8.9544
# End       : 9.0544
# Dir       : Backward
# Points    : 300
# ScanTime  : 1.01549
# Date      : 13.04.23 22:32
# Ring Cur. : 25.7[mA]
12.7557	12.6118	0.309914	0.238059
12.7562	12.6123	0.308602	0.23692
12.7566	12.6127	0.311642	0.237396
12.7571	12.6132	0.314341	0.240558
12.7576	12.6137	0.312085	0.240718
12.7581	12.6141	0.312485	0.242344
12.7585	12.6146	0.312321	0.243114
12.759	12.6151	0.311988	0.241822
12.7595	12.6156	0.314848	0.242741
12.7599	12.6161	0.315238	0.244809
12.7604	12.6165	0.312161	0.244965
12.7609	12.617	0.312227	0.242673
12.7614	12.6175	0.31208	0.242544
12.7618	12.618	0.315502	0.245451
12.7623	12.6184	0.312852	0.245175
12.7628	12.6189	0.312101	0.244182
12.7632	12.6194	0.312802	0.242823
12.7637	12.6198	0.312818	0.242674
12.7642	12.6203	0.314231	0.24411
12.7647	12.6208	0.314112	0.246382
12.7651	12.6213	0.314626	0.247491
12.7656	12.6217	0.312048	0.243889
12.7661	12.6222	0.313681	0.2458
12.7666	12.6227	0.316565	0.246595
12.767	12.6231	0.31682	0.248581
12.7675	12.6236	0.313102	0.24732
12.768	12.6241	0.313934	0.24789
12.7684	12.6246	0.312591	0.246251
12.7689	12.625	0.311777	0.246595
12.7694	12.6255	0.314158	0.250854
12.7699	12.626	0.313283	0.250834
12.7703	12.6265	0.311695	0.249584
12.7708	12.627	0.313419	0.249344
12.7713	12.6274	0.31566	0.253025
12.7717	12.6279	0.314398	0.25306
12.7722	12.6284	0.31397	0.253607
12.7727	12.6289	0.315802	0.252613
12.7732	12.6293	0.315464	0.251697
12.7736	12.6298	0.317063	0.253692
12.7741	12.6302	0.316109	0.253992
12.7746	12.6307	0.312736	0.253005
12.7751	12.6312	0.311475	0.249484
12.7755	12.6317	0.314937	0.250966
12.776	12.6321	0.315722	0.250884
12.7765	12.6326	0.314316	0.250717
12.7769	12.6331	0.313897	0.252474
12.7774	12.6335	0.316183	0.25035
12.7779	12.634	0.315382	0.250649
12.7784	12.6345	0.317643	0.253626
12.7788	12.635	0.319946	0.25533
12.7793	12.6354	0.316845	0.255935
12.7798	12.6359	0.315579	0.253507
12.7802	12.6364	0.317026	0.254834
12.7807	12.6369	0.318704	0.255733
12.7812	12.6373	0.315304	0.256333
12.7817	12.6378	0.315455	0.257547
12.7821	12.6383	0.315142	0.255327
12.7826	12.6387	0.317074	0.257983
12.7831	12.6392	0.315841	0.257138
12.7836	12.6397	0.316406	0.259101
12.784	12.6401	0.315443	0.258984
12.7845	12.6406	0.316689	0.256362
12.785	12.6411	0.318959	0.25784
12.7854	12.6416	0.318865	0.260269
12.7859	12.642	0.317683	0.259361
12.7864	12.6425	0.318306	0.261507
12.7869	12.6429	0.317772	0.259448
12.7873	12.6434	0.317695	0.257658
12.7878	12.6439	0.316298	0.254915
12.7883	12.6443	0.31716	0.257835
12.7887	12.6448	0.315297	0.257042
12.7892	12.6453	0.312124	0.252055
12.7897	12.6458	0.315569	0.252755
12.7902	12.6463	0.315878	0.253546
12.7906	12.6467	0.315592	0.252473
12.7911	12.6472	0.31535	0.252553
12.7916	12.6477	0.317823	0.250639
12.7921	12.6482	0.31961	0.248827
12.7925	12.6487	0.317037	0.24643
12.793	12.6491	0.321183	0.249743
12.7935	12.6496	0.319937	0.247405
12.7939	12.6501	0.316534	0.240785
12.7944	12.6505	0.319831	0.240072
12.7949	12.651	0.321917	0.241249
12.7954	12.6515	0.317968	0.236902
12.7958	12.652	0.317997	0.236004
12.7963	12.6524	0.319986	0.234071
12.7968	12.6529	0.320409	0.229653
12.7972	12.6534	0.319254	0.229629
12.7977	12.6538	0.32183	0.229995
12.7982	12.6543	0.321847	0.229187
12.7987	12.6548	0.318899	0.224839
12.7991	12.6553	0.321846	0.224181
12.7996	12.6557	0.322438	0.224507
12.8001	12.6562	0.319688	0.22296
12.8006	12.6567	0.320044	0.22345
12.801	12.6572	0.321549	0.220292
12.8015	12.6577	0.320802	0.220082
12.802	12.6581	0.320444	0.221666
12.8024	12.6586	0.321537	0.222768
12.8029	12.6591	0.319908	0.222636
12.8034	12.6595	0.31733	0.220514
12.8039	12.66	0.321262	0.223182
12.8043	12.6605	0.322381	0.225422
12.8048	12.6609	0.321602	0.228034
12.8053	12.6614	0.322143	0.229641
12.8057	12.6619	0.323203	0.229836
12.8062	12.6623	0.322205	0.230522
12.8067	12.6628	0.323895	0.234544
12.8072	12.6633	0.323143	0.238051
12.8076	12.6637	0.322727	0.238643
12.8081	12.6642	0.320964	0.235775
12.8086	12.6647	0.323366	0.239592
12.8091	12.6652	0.323221	0.242024
12.8095	12.6656	0.322522	0.245374
12.81	12.6661	0.322435	0.247403
12.8105	12.6666	0.321885	0.246388
12.8109	12.6671	0.322227	0.247486
12.8114	12.6675	0.323674	0.253109
12.8119	12.668	0.324618	0.256529
12.8124	12.6685	0.322985	0.256105
12.8128	12.669	0.321865	0.257479
12.8133	12.6694	0.324839	0.261332
12.8138	12.6699	0.326359	0.263805
12.8142	12.6703	0.323792	0.265939
12.8147	12.6708	0.321248	0.265997
12.8152	12.6713	0.323434	0.2665
12.8157	12.6718	0.323377	0.268391
12.8161	12.6722	0.321861	0.27057
12.8166	12.6727	0.324145	0.274043
12.8171	12.6732	0.323401	0.273046
12.8176	12.6736	0.321235	0.273092
12.818	12.6741	0.323387	0.274844
12.8185	12.6746	0.325104	0.277187
12.819	12.6751	0.322078	0.277018
12.8194	12.6755	0.324543	0.278677
12.8199	12.676	0.324447	0.278582
12.8204	12.6765	0.326471	0.279914
12.8209	12.677	0.323217	0.280652
12.8213	12.6775	0.323666	0.280826
12.8218	12.6779	0.323531	0.280633
12.8223	12.6784	0.321414	0.277286
12.8227	12.6789	0.325808	0.278917
12.8232	12.6793	0.323491	0.277836
12.8237	12.6798	0.323779	0.276573
12.8242	12.6803	0.321665	0.274601
12.8246	12.6808	0.323037	0.271929
12.8251	12.6812	0.323745	0.270169
12.8256	12.6817	0.323414	0.268073
12.8261	12.6822	0.323317	0.267004
12.8265	12.6826	0.32316	0.263858
12.827	12.6831	0.321563	0.259578
12.8275	12.6836	0.324544	0.256961
12.8279	12.6841	0.324407	0.2561
12.8284	12.6845	0.321877	0.254444
12.8289	12.685	0.322098	0.250086
12.8294	12.6855	0.321747	0.246647
12.8298	12.686	0.32452	0.244178
12.8303	12.6864	0.322759	0.240894
12.8308	12.6869	0.324125	0.239698
12.8312	12.6874	0.324667	0.234488
12.8317	12.6879	0.322597	0.230617
12.8322	12.6884	0.326856	0.227958
12.8327	12.6888	0.325208	0.227076
12.8331	12.6893	0.325537	0.225713
12.8336	12.6897	0.326898	0.224443
12.8341	12.6902	0.326038	0.222602
12.8346	12.6907	0.326046	0.224582
12.835	12.6912	0.324987	0.22846
12.8355	12.6916	0.325565	0.232067
12.836	12.6921	0.322298	0.234443
12.8364	12.6926	0.322551	0.237858
12.8369	12.693	0.325717	0.243221
12.8374	12.6935	0.322701	0.248951
12.8379	12.694	0.323703	0.25295
12.8383	12.6944	0.323363	0.257826
12.8388	12.6949	0.323628	0.25864
12.8393	12.6954	0.322808	0.260232
12.8397	12.6959	0.324379	0.264527
12.8402	12.6963	0.325604	0.267308
12.8407	12.6968	0.322469	0.263586
12.8412	12.6973	0.321813	0.259402
12.8416	12.6978	0.327079	0.262123
12.8421	12.6982	0.328318	0.26151
12.8426	12.6987	0.324087	0.256094
12.8431	12.6991	0.323009	0.251344
12.8435	12.6996	0.321432	0.246276
12.844	12.7001	0.324207	0.242855
12.8445	12.7005	0.322972	0.239928
12.8449	12.701	0.323015	0.23783
12.8454	12.7015	0.324171	0.233522
12.8459	12.702	0.323223	0.22884
12.8464	12.7024	0.325234	0.228582
12.8468	12.7029	0.324876	0.229283
12.8473	12.7034	0.324924	0.230264
12.8478	12.7038	0.323428	0.230165
12.8482	12.7043	0.324175	0.231025
12.8487	12.7048	0.325033	0.238169
12.8492	12.7053	0.325065	0.244951
12.8497	12.7058	0.324434	0.253005
12.8501	12.7063	0.324702	0.261241
12.8506	12.7067	0.322936	0.267849
12.8511	12.7072	0.325726	0.279801
12.8516	12.7077	0.327856	0.295875
12.852	12.7082	0.325463	0.309384
12.8525	12.7086	0.32547	0.320146
12.853	12.7091	0.325875	0.332473
12.8534	12.7096	0.327036	0.347354
12.8539	12.71	0.326563	0.363681
12.8544	12.7105	0.327165	0.378555
12.8549	12.711	0.326451	0.389926
12.8553	12.7115	0.326098	0.398648
12.8558	12.7119	0.328314	0.41461
12.8563	12.7124	0.327674	0.424889
12.8567	12.7129	0.326569	0.437259
12.8572	12.7133	0.32745	0.443899
12.8577	12.7138	0.328914	0.452407
12.8582	12.7143	0.328651	0.461271
12.8586	12.7147	0.327756	0.468203
12.8591	12.7152	0.327948	0.4805
12.8596	12.7157	0.328795	0.48648
12.8601	12.7162	0.32809	0.494688
12.8605	12.7167	0.32919	0.50391
12.861	12.7171	0.328855	0.516867
12.8615	12.7176	0.32832	0.522178
12.8619	12.7181	0.327918	0.523056
12.8624	12.7186	0.3304	0.523829
12.8629	12.719	0.328147	0.51747
12.8634	12.7195	0.327026	0.516547
12.8638	12.7199	0.329112	0.516923
12.8643	12.7204	0.328556	0.508678
12.8648	12.7209	0.327533	0.504054
12.8652	12.7214	0.327555	0.50953
12.8657	12.7218	0.328787	0.520932
12.8662	12.7223	0.325699	0.535783
12.8667	12.7228	0.327901	0.561019
12.8671	12.7232	0.328277	0.596716
12.8676	12.7237	0.326315	0.637969
12.8681	12.7242	0.326446	0.694721
12.8686	12.7246	0.325049	0.754222
12.869	12.7251	0.324605	0.796018
12.8695	12.7256	0.32372	0.835792
12.87	12.7261	0.326156	0.870992
12.8704	12.7265	0.327705	0.899509
12.8709	12.727	0.326501	0.919761
12.8714	12.7275	0.327207	0.930706
12.8719	12.728	0.329276	0.94235
12.8723	12.7284	0.328099	0.944978
12.8728	12.7289	0.327531	0.95384
12.8733	12.7294	0.328098	0.966994
12.8737	12.7298	0.330354	0.966113
12.8742	12.7303	0.328897	0.966917
12.8747	12.7308	0.331117	0.975092
12.8752	12.7313	0.331042	0.982106
12.8756	12.7317	0.329844	0.986645
12.8761	12.7322	0.331705	0.985229
12.8766	12.7327	0.331869	0.987387
12.8771	12.7331	0.330544	0.987432
12.8775	12.7336	0.330557	0.990429
12.878	12.7341	0.330467	0.996595
12.8785	12.7346	0.331056	0.992621
12.8789	12.735	0.32947	0.990401
12.8794	12.7355	0.330788	0.994522
12.8799	12.736	0.332059	0.999813
12.8804	12.7365	0.331786	1.00201
12.8808	12.737	0.332307	0.999044
12.8813	12.7375	0.334237	1.0029
12.8818	12.7379	0.333159	1.00692
12.8822	12.7384	0.332143	1.00465
12.8827	12.7389	0.334571	1.01379
12.8832	12.7393	0.333383	1.00994
12.8837	12.7398	0.333115	1.00718
12.8841	12.7403	0.333326	1.01012
12.8846	12.7407	0.333686	1.01545
12.8851	12.7412	0.333057	1.01274
12.8856	12.7417	0.331938	1.01182
12.886	12.7422	0.334658	1.01303
12.8865	12.7426	0.333565	1.01042
12.887	12.7431	0.333542	1.01444
12.8874	12.7436	0.335331	1.02278
12.8879	12.744	0.333982	1.01631
12.8884	12.7445	0.334291	1.0144
12.8889	12.745	0.336456	1.02128
12.8893	12.7455	0.335752	1.02336
12.8898	12.7459	0.334306	1.02228
12.8903	12.7464	0.334703	1.02073
12.8907	12.7469	0.337145	1.02382
12.8912	12.7474	0.334345	1.01728
12.8917	12.7478	0.336404	1.02369
12.8922	12.7483	0.336239	1.03102
12.8926	12.7488	0.335482	1.02286
12.8931	12.7492	0.336167	1.01963
12.8936	12.7497	0.337891	1.02566
12.8941	12.7502	0.33725	1.0267
12.8945	12.7506	0.33492	1.02668
12.895	12.7511	0.336411	1.02733
12.8955	12.7516	0.338458	1.02965
12.8959	12.752	0.337778	1.02627
12.8964	12.7525	0.336386	1.02696
12.8969	12.753	0.335792	1.03266
12.8974	12.7534	0.337731	1.02667
12.8978	12.7539	0.336162	1.02706
12.8983	12.7544	0.338106	1.03047
12.8988	12.7549	0.338483	1.03249
