# 1304     AichiSR QXAFS
# Start     : 8.9544
# End       : 9.0544
# Dir       : Backward
# Points    : 300
# ScanTime  : 1.01549
# Date      : 13.04.23 22:30
# Ring Cur. : 25.6[mA]
12.7557	12.6118	0.300151	0.22961
12.7562	12.6123	0.298175	0.228255
12.7566	12.6127	0.301365	0.231064
12.7571	12.6132	0.302817	0.233886
12.7576	12.6137	0.300144	0.23472
12.7581	12.6141	0.299641	0.232241
12.7585	12.6146	0.301877	0.233718
12.759	12.6151	0.302388	0.234769
12.7595	12.6156	0.300778	0.235521
12.7599	12.616	0.302848	0.237951
12.7604	12.6165	0.302749	0.234784
12.7609	12.617	0.301683	0.233297
12.7614	12.6175	0.302624	0.235924
12.7618	12.618	0.304608	0.237963
12.7623	12.6184	0.300854	0.237048
12.7628	12.6189	0.301249	0.235851
12.7632	12.6194	0.301149	0.234155
12.7637	12.6198	0.302487	0.234518
12.7642	12.6203	0.302598	0.236096
12.7647	12.6208	0.304103	0.239381
12.7651	12.6213	0.301735	0.236208
12.7656	12.6217	0.301502	0.233297
12.7661	12.6222	0.304049	0.236149
12.7666	12.6227	0.305126	0.239352
12.767	12.6231	0.303969	0.239625
12.7675	12.6236	0.301811	0.238246
12.768	12.6241	0.302359	0.237233
12.7684	12.6245	0.302138	0.238684
12.7689	12.625	0.303928	0.240332
12.7694	12.6255	0.303784	0.24367
12.7699	12.626	0.303514	0.24171
12.7703	12.6265	0.300952	0.238351
12.7708	12.6269	0.301736	0.240365
12.7713	12.6274	0.303815	0.244044
12.7717	12.6279	0.301229	0.243427
12.7722	12.6284	0.302643	0.242624
12.7727	12.6288	0.302021	0.24166
12.7732	12.6293	0.303948	0.243522
12.7736	12.6298	0.304267	0.24428
12.7741	12.6302	0.304828	0.245992
12.7746	12.6307	0.304807	0.24314
12.7751	12.6312	0.301843	0.240315
12.7755	12.6317	0.304272	0.242333
12.776	12.6321	0.304416	0.243864
12.7765	12.6326	0.304772	0.244927
12.7769	12.6331	0.304666	0.242598
12.7774	12.6335	0.304754	0.241761
12.7779	12.634	0.303358	0.241811
12.7784	12.6345	0.30338	0.243099
12.7788	12.6349	0.304226	0.244887
12.7793	12.6354	0.30409	0.242926
12.7798	12.6359	0.302419	0.242309
12.7802	12.6364	0.304149	0.244775
12.7807	12.6368	0.303709	0.24685
12.7812	12.6373	0.3033	0.246661
12.7817	12.6378	0.304648	0.247254
12.7821	12.6383	0.304582	0.246452
12.7826	12.6387	0.304142	0.245539
12.7831	12.6392	0.302786	0.248125
12.7836	12.6397	0.307671	0.252019
12.784	12.6401	0.305477	0.248934
12.7845	12.6406	0.305191	0.248079
12.785	12.6411	0.305605	0.249982
12.7854	12.6416	0.305247	0.251373
12.7859	12.642	0.303503	0.250332
12.7864	12.6425	0.30338	0.248754
12.7869	12.6429	0.304945	0.246068
12.7873	12.6434	0.30416	0.246501
12.7878	12.6439	0.303895	0.248133
12.7883	12.6443	0.305053	0.248917
12.7887	12.6448	0.303096	0.245487
12.7892	12.6453	0.30083	0.243002
12.7897	12.6458	0.303967	0.243887
12.7902	12.6463	0.303616	0.244298
12.7906	12.6467	0.302586	0.242421
12.7911	12.6472	0.303174	0.241167
12.7916	12.6477	0.304301	0.239607
12.7921	12.6482	0.303787	0.238806
12.7925	12.6486	0.304017	0.23936
12.793	12.6491	0.305729	0.237328
12.7935	12.6496	0.305462	0.234743
12.7939	12.65	0.3045	0.231512
12.7944	12.6505	0.306885	0.231014
12.7949	12.651	0.307986	0.232249
12.7954	12.6515	0.307572	0.229207
12.7958	12.652	0.308355	0.227243
12.7963	12.6524	0.308957	0.224653
12.7968	12.6529	0.311046	0.224657
12.7972	12.6534	0.30881	0.222501
12.7977	12.6538	0.308517	0.22175
12.7982	12.6543	0.307722	0.21827
12.7987	12.6548	0.307956	0.216945
12.7991	12.6553	0.307196	0.214569
12.7996	12.6557	0.307553	0.21594
12.8001	12.6562	0.306107	0.213898
12.8006	12.6567	0.307418	0.212096
12.801	12.6572	0.309098	0.212614
12.8015	12.6577	0.308624	0.212206
12.802	12.6581	0.307763	0.213184
12.8024	12.6586	0.307955	0.213167
12.8029	12.6591	0.308526	0.213735
12.8034	12.6595	0.309833	0.213371
12.8039	12.66	0.308581	0.214176
12.8043	12.6605	0.309697	0.218637
12.8048	12.6609	0.308133	0.218572
12.8053	12.6614	0.308799	0.220205
12.8057	12.6619	0.311336	0.221001
12.8062	12.6623	0.309428	0.221753
12.8067	12.6628	0.310873	0.225238
12.8072	12.6633	0.310511	0.227772
12.8076	12.6637	0.309488	0.227259
12.8081	12.6642	0.312049	0.229109
12.8086	12.6647	0.311804	0.231446
12.8091	12.6652	0.311928	0.234594
12.8095	12.6656	0.312404	0.234952
12.81	12.6661	0.312814	0.236913
12.8105	12.6666	0.314516	0.240547
12.8109	12.6671	0.310186	0.239735
12.8114	12.6675	0.311	0.242965
12.8119	12.668	0.313244	0.246775
12.8124	12.6685	0.311351	0.246506
12.8128	12.6689	0.312041	0.248125
12.8133	12.6694	0.311709	0.250747
12.8138	12.6699	0.313835	0.255506
12.8142	12.6703	0.312508	0.255632
12.8147	12.6708	0.311795	0.25706
12.8152	12.6713	0.316297	0.261172
12.8157	12.6718	0.312176	0.260184
12.8161	12.6722	0.31236	0.264638
12.8166	12.6727	0.315481	0.266178
12.8171	12.6731	0.314417	0.264471
12.8176	12.6736	0.315406	0.266309
12.818	12.6741	0.315199	0.267778
12.8185	12.6746	0.314882	0.270275
12.819	12.675	0.31274	0.26933
12.8194	12.6755	0.314423	0.27031
12.8199	12.676	0.316735	0.270797
12.8204	12.6765	0.315584	0.272037
12.8209	12.677	0.314643	0.272908
12.8213	12.6775	0.315689	0.273817
12.8218	12.6779	0.314389	0.271114
12.8223	12.6784	0.3159	0.27138
12.8227	12.6789	0.31625	0.273768
12.8232	12.6793	0.317275	0.272492
12.8237	12.6798	0.316093	0.271559
12.8242	12.6803	0.315809	0.267569
12.8246	12.6807	0.318734	0.268005
12.8251	12.6812	0.315696	0.264827
12.8256	12.6817	0.317654	0.264143
12.8261	12.6822	0.31694	0.261157
12.8265	12.6826	0.315479	0.256156
12.827	12.6831	0.316516	0.252531
12.8275	12.6836	0.316165	0.254266
12.8279	12.684	0.315315	0.252827
12.8284	12.6845	0.31699	0.249394
12.8289	12.685	0.314414	0.244954
12.8294	12.6855	0.317269	0.243185
12.8298	12.686	0.318218	0.241379
12.8303	12.6864	0.319508	0.239057
12.8308	12.6869	0.318831	0.234961
12.8312	12.6874	0.318653	0.230216
12.8317	12.6879	0.320421	0.226173
12.8322	12.6883	0.319073	0.22426
12.8327	12.6888	0.319335	0.224865
12.8331	12.6893	0.320063	0.221539
12.8336	12.6897	0.320067	0.219702
12.8341	12.6902	0.32182	0.221055
12.8346	12.6907	0.319692	0.221383
12.835	12.6911	0.319211	0.225151
12.8355	12.6916	0.321694	0.227858
12.836	12.6921	0.319848	0.231292
12.8364	12.6925	0.318489	0.233828
12.8369	12.693	0.320357	0.239923
12.8374	12.6935	0.320632	0.246853
12.8379	12.6939	0.318506	0.249226
12.8383	12.6944	0.320522	0.251044
12.8388	12.6949	0.323054	0.257243
12.8393	12.6954	0.319597	0.258178
12.8397	12.6958	0.317014	0.259922
12.8402	12.6963	0.322165	0.262314
12.8407	12.6968	0.320994	0.259947
12.8412	12.6973	0.320562	0.258376
12.8416	12.6977	0.320542	0.259284
12.8421	12.6982	0.320242	0.257143
12.8426	12.6987	0.320437	0.253106
12.8431	12.6991	0.320081	0.249386
12.8435	12.6996	0.32169	0.246683
12.844	12.7001	0.319546	0.242774
12.8445	12.7005	0.320183	0.240438
12.8449	12.701	0.322983	0.236182
12.8454	12.7015	0.319325	0.231118
12.8459	12.702	0.320727	0.22846
12.8464	12.7024	0.322017	0.227327
12.8468	12.7029	0.320087	0.227293
12.8473	12.7034	0.319887	0.22569
12.8478	12.7038	0.321356	0.226997
12.8482	12.7043	0.323201	0.230294
12.8487	12.7048	0.320154	0.234112
12.8492	12.7053	0.319693	0.240981
12.8497	12.7058	0.323182	0.248593
12.8501	12.7062	0.323627	0.256577
12.8506	12.7067	0.323288	0.266588
12.8511	12.7072	0.320385	0.27529
12.8516	12.7077	0.322217	0.2893
12.852	12.7082	0.322128	0.301719
12.8525	12.7086	0.321833	0.313149
12.853	12.7091	0.3239	0.327396
12.8534	12.7096	0.321802	0.340017
12.8539	12.71	0.323197	0.356232
12.8544	12.7105	0.323789	0.369488
12.8549	12.711	0.325264	0.38231
12.8553	12.7115	0.324021	0.391487
12.8558	12.7119	0.322652	0.405668
12.8563	12.7124	0.323643	0.419235
12.8567	12.7128	0.323588	0.426122
12.8572	12.7133	0.323519	0.433347
12.8577	12.7138	0.32559	0.444838
12.8582	12.7143	0.322936	0.451458
12.8586	12.7147	0.321355	0.460094
12.8591	12.7152	0.324422	0.468893
12.8596	12.7157	0.325001	0.478455
12.8601	12.7162	0.322591	0.486164
12.8605	12.7167	0.321396	0.493306
12.861	12.7171	0.322755	0.505615
12.8615	12.7176	0.322125	0.509578
12.8619	12.7181	0.324394	0.51301
12.8624	12.7185	0.325317	0.516924
12.8629	12.719	0.320993	0.510592
12.8634	12.7195	0.321557	0.509451
12.8638	12.7199	0.323865	0.505073
12.8643	12.7204	0.32361	0.499027
12.8648	12.7209	0.323293	0.498779
12.8652	12.7213	0.321475	0.502325
12.8657	12.7218	0.321966	0.51027
12.8662	12.7223	0.319028	0.519402
12.8667	12.7227	0.321486	0.543676
12.8671	12.7232	0.322888	0.581179
12.8676	12.7237	0.318843	0.617696
12.8681	12.7241	0.317724	0.666972
12.8686	12.7246	0.318396	0.722132
12.869	12.7251	0.319166	0.770603
12.8695	12.7256	0.318655	0.812538
12.87	12.726	0.320126	0.846952
12.8704	12.7265	0.318581	0.871246
12.8709	12.727	0.319847	0.89052
12.8714	12.7275	0.320742	0.907343
12.8719	12.728	0.322491	0.920734
12.8723	12.7284	0.320246	0.922406
12.8728	12.7289	0.320172	0.931481
12.8733	12.7294	0.322595	0.939379
12.8737	12.7298	0.322719	0.948551
12.8742	12.7303	0.321864	0.947878
12.8747	12.7308	0.322823	0.95514
12.8752	12.7313	0.32183	0.956677
12.8756	12.7317	0.321777	0.954294
12.8761	12.7322	0.323272	0.956485
12.8766	12.7327	0.323617	0.965386
12.8771	12.7331	0.321001	0.958963
12.8775	12.7336	0.319141	0.959723
12.878	12.7341	0.322758	0.966474
12.8785	12.7346	0.323005	0.967335
12.8789	12.735	0.322783	0.96718
12.8794	12.7355	0.324373	0.971426
12.8799	12.736	0.324382	0.976313
12.8804	12.7365	0.322973	0.971568
12.8808	12.737	0.324218	0.976591
12.8813	12.7374	0.324252	0.978566
12.8818	12.7379	0.323621	0.976974
12.8822	12.7384	0.322959	0.979188
12.8827	12.7389	0.32399	0.980493
12.8832	12.7393	0.324722	0.976595
12.8837	12.7398	0.323732	0.979714
12.8841	12.7403	0.323806	0.983669
12.8846	12.7407	0.322615	0.98153
12.8851	12.7412	0.323486	0.97795
12.8856	12.7417	0.325551	0.984905
12.886	12.7422	0.325039	0.986375
12.8865	12.7426	0.323603	0.982505
12.887	12.7431	0.323779	0.985505
12.8874	12.7435	0.324855	0.987068
12.8879	12.744	0.326303	0.988497
12.8884	12.7445	0.325586	0.98971
12.8889	12.745	0.325278	0.989935
12.8893	12.7454	0.3237	0.987491
12.8898	12.7459	0.323794	0.987561
12.8903	12.7464	0.32751	0.99324
12.8907	12.7469	0.326065	0.991216
12.8912	12.7474	0.325097	0.990472
12.8917	12.7478	0.324116	0.994554
12.8922	12.7483	0.326798	0.991433
12.8926	12.7488	0.327991	0.994493
12.8931	12.7492	0.326708	0.991726
12.8936	12.7497	0.327202	0.997237
12.8941	12.7502	0.325162	0.997026
12.8945	12.7506	0.326388	0.992854
12.895	12.7511	0.327895	0.999167
12.8955	12.7516	0.328088	0.997819
12.8959	12.752	0.325414	0.996051
12.8964	12.7525	0.325101	0.993496
12.8969	12.753	0.324522	0.991448
12.8974	12.7534	0.327667	0.996628
12.8978	12.7539	0.326048	0.992626
12.8983	12.7544	0.325448	0.994475
12.8988	12.7548	0.326062	1.00009
