# 1304     AichiSR QXAFS
# Start     : 8.9544
# End       : 9.0544
# Dir       : Backward
# Points    : 300
# ScanTime  : 1.01549
# Date      : 13.04.23 22:22
# Ring Cur. : 25.5[mA]
12.7557	12.6117	0.30669	0.235364
12.7562	12.6122	0.306295	0.234544
12.7566	12.6127	0.306534	0.2347
12.7571	12.6131	0.309114	0.236645
12.7576	12.6136	0.307538	0.237252
12.7581	12.6141	0.308202	0.240193
12.7585	12.6145	0.309849	0.240283
12.759	12.615	0.30704	0.237813
12.7595	12.6155	0.312505	0.241651
12.7599	12.616	0.311418	0.24317
12.7604	12.6164	0.30927	0.242814
12.7609	12.6169	0.309433	0.240752
12.7614	12.6174	0.308143	0.239952
12.7618	12.6179	0.312223	0.242352
12.7623	12.6183	0.309107	0.239763
12.7628	12.6188	0.307372	0.241654
12.7632	12.6193	0.308651	0.241785
12.7637	12.6197	0.310464	0.240342
12.7642	12.6202	0.310453	0.242113
12.7647	12.6207	0.311763	0.241617
12.7651	12.6212	0.312112	0.244301
12.7656	12.6217	0.307278	0.241374
12.7661	12.6221	0.310094	0.241605
12.7666	12.6226	0.311108	0.244486
12.767	12.623	0.310598	0.244385
12.7675	12.6235	0.308059	0.244998
12.768	12.624	0.3097	0.24506
12.7684	12.6245	0.309511	0.243842
12.7689	12.6249	0.309785	0.243328
12.7694	12.6254	0.311478	0.248714
12.7699	12.6259	0.310724	0.248952
12.7703	12.6264	0.308673	0.248036
12.7708	12.6269	0.308627	0.245528
12.7713	12.6273	0.310819	0.248599
12.7717	12.6278	0.30975	0.248136
12.7722	12.6283	0.30995	0.249278
12.7727	12.6288	0.311742	0.248299
12.7732	12.6292	0.310529	0.247948
12.7736	12.6297	0.311705	0.247791
12.7741	12.6301	0.311336	0.250358
12.7746	12.6306	0.310675	0.249483
12.7751	12.6311	0.310723	0.24913
12.7755	12.6316	0.311119	0.248719
12.776	12.6321	0.312493	0.248676
12.7765	12.6325	0.312335	0.248693
12.7769	12.633	0.310802	0.249994
12.7774	12.6334	0.311272	0.248282
12.7779	12.6339	0.310064	0.246829
12.7784	12.6344	0.311822	0.248242
12.7788	12.6349	0.313955	0.25082
12.7793	12.6353	0.310884	0.250352
12.7798	12.6358	0.31139	0.250467
12.7802	12.6363	0.313898	0.250528
12.7807	12.6368	0.312781	0.25196
12.7812	12.6372	0.312921	0.251908
12.7817	12.6377	0.313392	0.25507
12.7821	12.6382	0.311322	0.252016
12.7826	12.6387	0.31069	0.252828
12.7831	12.6391	0.31116	0.25287
12.7836	12.6396	0.313808	0.255375
12.784	12.64	0.311964	0.255581
12.7845	12.6405	0.312376	0.254308
12.785	12.641	0.313459	0.255094
12.7854	12.6415	0.313848	0.255526
12.7859	12.6419	0.313259	0.256082
12.7864	12.6424	0.313129	0.256461
12.7869	12.6428	0.311585	0.255389
12.7873	12.6433	0.312611	0.25301
12.7878	12.6438	0.312604	0.25382
12.7883	12.6443	0.313085	0.253151
12.7887	12.6447	0.309656	0.25326
12.7892	12.6452	0.308818	0.248808
12.7897	12.6457	0.310659	0.249861
12.7902	12.6462	0.312549	0.249059
12.7906	12.6467	0.311262	0.249627
12.7911	12.6471	0.311188	0.248728
12.7916	12.6476	0.313058	0.24705
12.7921	12.6481	0.315022	0.245778
12.7925	12.6486	0.313503	0.244786
12.793	12.649	0.315416	0.244662
12.7935	12.6495	0.312467	0.242699
12.7939	12.65	0.31277	0.240152
12.7944	12.6504	0.313303	0.238682
12.7949	12.6509	0.316426	0.237022
12.7954	12.6514	0.314656	0.234835
12.7958	12.6519	0.314201	0.234208
12.7963	12.6523	0.314967	0.231745
12.7968	12.6528	0.316102	0.228171
12.7972	12.6533	0.316189	0.227545
12.7977	12.6537	0.315073	0.227837
12.7982	12.6542	0.314847	0.224788
12.7987	12.6547	0.314814	0.221872
12.7991	12.6552	0.315772	0.219581
12.7996	12.6557	0.31923	0.220976
12.8001	12.6561	0.316227	0.219662
12.8006	12.6566	0.314989	0.219253
12.801	12.6571	0.316057	0.218081
12.8015	12.6576	0.315857	0.216782
12.802	12.658	0.317381	0.218506
12.8024	12.6585	0.31644	0.220085
12.8029	12.659	0.315205	0.220047
12.8034	12.6594	0.314631	0.217985
12.8039	12.6599	0.316631	0.220402
12.8043	12.6604	0.318456	0.221351
12.8048	12.6609	0.318357	0.2245
12.8053	12.6613	0.31705	0.22624
12.8057	12.6618	0.31735	0.225902
12.8062	12.6623	0.316504	0.225814
12.8067	12.6627	0.317974	0.229412
12.8072	12.6632	0.318746	0.234429
12.8076	12.6636	0.316393	0.234048
12.8081	12.6641	0.316418	0.232156
12.8086	12.6646	0.317816	0.234742
12.8091	12.6651	0.318896	0.238955
12.8095	12.6655	0.315785	0.240552
12.81	12.666	0.316692	0.242452
12.8105	12.6665	0.316373	0.242422
12.8109	12.667	0.316956	0.243025
12.8114	12.6675	0.31965	0.246848
12.8119	12.6679	0.32089	0.250849
12.8124	12.6684	0.315637	0.25261
12.8128	12.6689	0.315593	0.25068
12.8133	12.6693	0.317808	0.253987
12.8138	12.6698	0.319445	0.258042
12.8142	12.6702	0.317136	0.259665
12.8147	12.6707	0.317642	0.261571
12.8152	12.6712	0.317696	0.262885
12.8157	12.6717	0.317935	0.262408
12.8161	12.6721	0.31917	0.266284
12.8166	12.6726	0.319294	0.270237
12.8171	12.6731	0.316989	0.269107
12.8176	12.6735	0.316648	0.268583
12.818	12.674	0.317818	0.269776
12.8185	12.6745	0.318474	0.271252
12.819	12.675	0.319357	0.273209
12.8194	12.6754	0.317995	0.274858
12.8199	12.6759	0.319145	0.27311
12.8204	12.6764	0.318352	0.273897
12.8209	12.6769	0.318201	0.275281
12.8213	12.6774	0.32087	0.277057
12.8218	12.6779	0.318341	0.277304
12.8223	12.6783	0.316482	0.272822
12.8227	12.6788	0.319822	0.272427
12.8232	12.6792	0.32002	0.274786
12.8237	12.6797	0.320159	0.274072
12.8242	12.6802	0.317637	0.272038
12.8246	12.6807	0.31788	0.268461
12.8251	12.6811	0.318475	0.264733
12.8256	12.6816	0.318602	0.263315
12.8261	12.6821	0.320303	0.263842
12.8265	12.6826	0.317937	0.260061
12.827	12.683	0.315592	0.254918
12.8275	12.6835	0.317492	0.252394
12.8279	12.684	0.317846	0.252503
12.8284	12.6844	0.316922	0.250323
12.8289	12.6849	0.316853	0.248027
12.8294	12.6854	0.318693	0.243801
12.8298	12.6859	0.317015	0.239441
12.8303	12.6864	0.317697	0.237159
12.8308	12.6868	0.321247	0.238099
12.8312	12.6873	0.318643	0.233103
12.8317	12.6878	0.317842	0.226949
12.8322	12.6883	0.321197	0.22482
12.8327	12.6887	0.324528	0.226215
12.8331	12.6892	0.320231	0.22315
12.8336	12.6896	0.320313	0.221783
12.8341	12.6901	0.319263	0.219743
12.8346	12.6906	0.319393	0.219475
12.835	12.6911	0.31992	0.222757
12.8355	12.6915	0.321552	0.22967
12.836	12.692	0.319443	0.232211
12.8364	12.6925	0.317186	0.233602
12.8369	12.6929	0.320909	0.238878
12.8374	12.6934	0.31898	0.243672
12.8379	12.6939	0.318602	0.248472
12.8383	12.6943	0.319836	0.253426
12.8388	12.6948	0.318785	0.254443
12.8393	12.6953	0.319766	0.256058
12.8397	12.6958	0.31893	0.259068
12.8402	12.6962	0.321745	0.263053
12.8407	12.6967	0.318841	0.260008
12.8412	12.6972	0.318025	0.257741
12.8416	12.6977	0.319893	0.256257
12.8421	12.6981	0.319233	0.255602
12.8426	12.6986	0.319407	0.252858
12.8431	12.6991	0.319895	0.249675
12.8435	12.6995	0.320385	0.245633
12.844	12.7	0.319957	0.240034
12.8445	12.7005	0.320073	0.23869
12.8449	12.7009	0.322633	0.237768
12.8454	12.7014	0.320911	0.233453
12.8459	12.7019	0.319801	0.227319
12.8464	12.7024	0.322358	0.226972
12.8468	12.7028	0.321772	0.226664
12.8473	12.7033	0.322168	0.228373
12.8478	12.7038	0.32205	0.229585
12.8482	12.7042	0.322442	0.230025
12.8487	12.7047	0.321495	0.234269
12.8492	12.7052	0.321773	0.241603
12.8497	12.7057	0.32396	0.251425
12.8501	12.7062	0.323528	0.258843
12.8506	12.7066	0.322338	0.264475
12.8511	12.7071	0.323851	0.277463
12.8516	12.7076	0.324984	0.289796
12.852	12.7081	0.324585	0.303857
12.8525	12.7085	0.325461	0.31585
12.853	12.709	0.324764	0.329215
12.8534	12.7095	0.325063	0.342563
12.8539	12.7099	0.323267	0.35512
12.8544	12.7104	0.325433	0.372045
12.8549	12.7109	0.323952	0.384484
12.8553	12.7114	0.324276	0.393841
12.8558	12.7118	0.32547	0.405081
12.8563	12.7123	0.326226	0.419365
12.8567	12.7128	0.32529	0.430305
12.8572	12.7132	0.325416	0.440253
12.8577	12.7137	0.325945	0.446193
12.8582	12.7142	0.325152	0.451528
12.8586	12.7147	0.325556	0.463194
12.8591	12.7151	0.327819	0.477614
12.8596	12.7156	0.32713	0.483542
12.8601	12.7161	0.325346	0.487229
12.8605	12.7166	0.327685	0.499683
12.861	12.717	0.326642	0.508539
12.8615	12.7175	0.327177	0.515709
12.8619	12.718	0.326856	0.520098
12.8624	12.7185	0.325527	0.516951
12.8629	12.7189	0.325697	0.513598
12.8634	12.7194	0.325601	0.513969
12.8638	12.7198	0.32643	0.511337
12.8643	12.7203	0.326729	0.508539
12.8648	12.7208	0.324022	0.50216
12.8652	12.7213	0.327043	0.507575
12.8657	12.7217	0.32437	0.515545
12.8662	12.7222	0.324972	0.529493
12.8667	12.7227	0.327614	0.555285
12.8671	12.7231	0.32558	0.582796
12.8676	12.7236	0.324671	0.621858
12.8681	12.7241	0.323312	0.676074
12.8686	12.7245	0.324221	0.730095
12.869	12.725	0.321551	0.77883
12.8695	12.7255	0.320808	0.812046
12.87	12.726	0.324962	0.851428
12.8704	12.7264	0.324679	0.880949
12.8709	12.7269	0.325441	0.905269
12.8714	12.7274	0.326208	0.921943
12.8719	12.7279	0.327678	0.931711
12.8723	12.7283	0.327889	0.939167
12.8728	12.7288	0.326097	0.94589
12.8733	12.7293	0.32757	0.959091
12.8737	12.7297	0.327966	0.960427
12.8742	12.7302	0.325278	0.960061
12.8747	12.7307	0.328078	0.965124
12.8752	12.7312	0.32804	0.967791
12.8756	12.7316	0.326226	0.974104
12.8761	12.7321	0.32816	0.978538
12.8766	12.7326	0.328326	0.978115
12.8771	12.733	0.32826	0.978103
12.8775	12.7335	0.327626	0.979561
12.878	12.734	0.330192	0.987795
12.8785	12.7345	0.328857	0.993609
12.8789	12.735	0.328884	0.984029
12.8794	12.7354	0.330959	0.992495
12.8799	12.7359	0.330735	0.992327
12.8804	12.7364	0.329321	0.99445
12.8808	12.7369	0.328284	0.994508
12.8813	12.7374	0.330822	0.99526
12.8818	12.7378	0.330431	0.992007
12.8822	12.7383	0.328161	0.994963
12.8827	12.7388	0.331214	1.0041
12.8832	12.7392	0.331233	1.00361
12.8837	12.7397	0.329792	0.995849
12.8841	12.7402	0.330452	0.998767
12.8846	12.7406	0.331338	1.00319
12.8851	12.7411	0.331795	1.00916
12.8856	12.7416	0.331398	1.0068
12.886	12.7421	0.331487	1.00676
12.8865	12.7425	0.331866	1.00448
12.887	12.743	0.331553	1.00583
12.8874	12.7435	0.333232	1.01223
12.8879	12.7439	0.332623	1.00973
12.8884	12.7444	0.330547	1.00664
12.8889	12.7449	0.332959	1.00669
12.8893	12.7454	0.334027	1.01185
12.8898	12.7458	0.330673	1.00997
12.8903	12.7463	0.332267	1.01293
12.8907	12.7468	0.333565	1.01518
12.8912	12.7473	0.332433	1.01096
12.8917	12.7477	0.33101	1.01117
12.8922	12.7482	0.335219	1.01963
12.8926	12.7487	0.334735	1.01722
12.8931	12.7492	0.332614	1.01018
12.8936	12.7496	0.333856	1.01418
12.8941	12.7501	0.332715	1.01727
12.8945	12.7505	0.3316	1.01377
12.895	12.751	0.332901	1.01771
12.8955	12.7515	0.334566	1.01794
12.8959	12.752	0.334176	1.01467
12.8964	12.7524	0.33469	1.01673
12.8969	12.7529	0.334937	1.02167
12.8974	12.7533	0.333189	1.01796
12.8978	12.7538	0.333629	1.01489
12.8983	12.7543	0.336156	1.02217
12.8988	12.7548	0.334085	1.01603
