# 1304     AichiSR QXAFS
# Start     : 8.9544
# End       : 9.0544
# Dir       : Backward
# Points    : 300
# ScanTime  : 1.01549
# Date      : 13.04.23 22:33
# Ring Cur. : 25.6[mA]
12.7557	12.6118	0.308818	0.236101
12.7562	12.6123	0.306323	0.237306
12.7566	12.6128	0.307438	0.237581
12.7571	12.6132	0.307565	0.237118
12.7576	12.6137	0.309052	0.236403
12.7581	12.6142	0.309794	0.239691
12.7585	12.6146	0.31124	0.241965
12.759	12.6151	0.308412	0.240761
12.7595	12.6156	0.310235	0.238648
12.7599	12.6161	0.312451	0.240979
12.7604	12.6165	0.31062	0.241057
12.7609	12.617	0.31004	0.242623
12.7614	12.6175	0.31032	0.24291
12.7618	12.618	0.309097	0.239801
12.7623	12.6184	0.311582	0.241451
12.7628	12.6189	0.311641	0.242809
12.7632	12.6194	0.311252	0.243903
12.7637	12.6198	0.311026	0.24387
12.7642	12.6203	0.30968	0.240848
12.7647	12.6208	0.313355	0.242847
12.7651	12.6213	0.313622	0.244105
12.7656	12.6218	0.311079	0.243765
12.7661	12.6222	0.312749	0.244609
12.7666	12.6227	0.310117	0.242449
12.767	12.6232	0.313264	0.244749
12.7675	12.6236	0.31175	0.245723
12.768	12.6241	0.312684	0.249135
12.7684	12.6246	0.311023	0.247602
12.7689	12.6251	0.3097	0.244114
12.7694	12.6255	0.315266	0.248678
12.7699	12.626	0.313623	0.249274
12.7703	12.6265	0.312471	0.251069
12.7708	12.627	0.312004	0.249006
12.7713	12.6274	0.314201	0.250203
12.7717	12.6279	0.312346	0.250759
12.7722	12.6284	0.313065	0.251609
12.7727	12.6289	0.313822	0.253304
12.7732	12.6293	0.3153	0.252346
12.7736	12.6298	0.312622	0.24995
12.7741	12.6303	0.3163	0.250952
12.7746	12.6307	0.314526	0.253061
12.7751	12.6312	0.313335	0.252249
12.7755	12.6317	0.314224	0.251347
12.776	12.6322	0.31466	0.24999
12.7765	12.6326	0.316014	0.250916
12.7769	12.6331	0.314916	0.251697
12.7774	12.6335	0.31793	0.252871
12.7779	12.634	0.315835	0.251387
12.7784	12.6345	0.314997	0.25036
12.7788	12.635	0.315369	0.252145
12.7793	12.6354	0.318123	0.253826
12.7798	12.6359	0.318201	0.255196
12.7802	12.6364	0.316691	0.253641
12.7807	12.6369	0.316476	0.253394
12.7812	12.6373	0.316046	0.25428
12.7817	12.6378	0.318433	0.259044
12.7821	12.6383	0.31798	0.259536
12.7826	12.6388	0.316503	0.2574
12.7831	12.6392	0.314429	0.255729
12.7836	12.6397	0.320213	0.259129
12.784	12.6401	0.319591	0.260003
12.7845	12.6406	0.317425	0.260961
12.785	12.6411	0.319646	0.261761
12.7854	12.6416	0.316872	0.258925
12.7859	12.642	0.318303	0.259694
12.7864	12.6425	0.317829	0.260263
12.7869	12.643	0.318005	0.26267
12.7873	12.6434	0.315319	0.256675
12.7878	12.6439	0.314473	0.25484
12.7883	12.6444	0.31686	0.257344
12.7887	12.6448	0.317184	0.25656
12.7892	12.6453	0.31401	0.255433
12.7897	12.6458	0.314675	0.253716
12.7902	12.6463	0.316572	0.254007
12.7906	12.6468	0.315354	0.252249
12.7911	12.6472	0.318451	0.254436
12.7916	12.6477	0.319966	0.253388
12.7921	12.6482	0.319109	0.250141
12.7925	12.6487	0.318655	0.24682
12.793	12.6491	0.320978	0.247918
12.7935	12.6496	0.31947	0.247775
12.7939	12.6501	0.318451	0.245525
12.7944	12.6505	0.319324	0.241446
12.7949	12.651	0.321849	0.2393
12.7954	12.6515	0.319008	0.236151
12.7958	12.652	0.320626	0.238031
12.7963	12.6524	0.322136	0.236678
12.7968	12.6529	0.320533	0.231356
12.7972	12.6534	0.320836	0.228904
12.7977	12.6538	0.321834	0.230423
12.7982	12.6543	0.32352	0.230112
12.7987	12.6548	0.322604	0.228108
12.7991	12.6553	0.323136	0.225679
12.7996	12.6558	0.322784	0.223173
12.8001	12.6562	0.321195	0.222355
12.8006	12.6567	0.324104	0.223364
12.801	12.6572	0.322762	0.222951
12.8015	12.6577	0.320495	0.220031
12.802	12.6581	0.321775	0.220524
12.8024	12.6586	0.322073	0.22208
12.8029	12.6591	0.322965	0.223605
12.8034	12.6595	0.32116	0.225424
12.8039	12.66	0.322397	0.224323
12.8043	12.6605	0.323332	0.225427
12.8048	12.661	0.322988	0.22801
12.8053	12.6614	0.324206	0.231685
12.8057	12.6619	0.324269	0.233601
12.8062	12.6624	0.324737	0.231839
12.8067	12.6628	0.325567	0.234515
12.8072	12.6633	0.322283	0.235868
12.8076	12.6638	0.323538	0.239121
12.8081	12.6642	0.324176	0.241296
12.8086	12.6647	0.322419	0.240223
12.8091	12.6652	0.324066	0.241293
12.8095	12.6657	0.322245	0.244007
12.81	12.6661	0.326978	0.249295
12.8105	12.6666	0.325879	0.25057
12.8109	12.6671	0.324641	0.250464
12.8114	12.6676	0.325917	0.251509
12.8119	12.668	0.326213	0.255972
12.8124	12.6685	0.326446	0.258723
12.8128	12.669	0.324637	0.260728
12.8133	12.6694	0.325381	0.262043
12.8138	12.6699	0.326184	0.263653
12.8142	12.6704	0.324265	0.264019
12.8147	12.6708	0.324594	0.268297
12.8152	12.6713	0.326633	0.271214
12.8157	12.6718	0.322131	0.268603
12.8161	12.6722	0.322967	0.269778
12.8166	12.6727	0.325396	0.273867
12.8171	12.6732	0.32435	0.275792
12.8176	12.6736	0.325145	0.276184
12.818	12.6741	0.325363	0.276769
12.8185	12.6746	0.327599	0.278055
12.819	12.6751	0.32469	0.278745
12.8194	12.6756	0.325973	0.28121
12.8199	12.676	0.327746	0.28228
12.8204	12.6765	0.324144	0.279855
12.8209	12.677	0.324795	0.279409
12.8213	12.6775	0.32446	0.280959
12.8218	12.678	0.3259	0.282501
12.8223	12.6784	0.323254	0.282017
12.8227	12.6789	0.32435	0.279296
12.8232	12.6794	0.327008	0.278338
12.8237	12.6798	0.324216	0.276386
12.8242	12.6803	0.326116	0.277441
12.8246	12.6808	0.326459	0.277106
12.8251	12.6813	0.32718	0.270746
12.8256	12.6817	0.325928	0.267643
12.8261	12.6822	0.32478	0.267151
12.8265	12.6827	0.324321	0.265822
12.827	12.6831	0.324722	0.263561
12.8275	12.6836	0.32389	0.258955
12.8279	12.6841	0.325874	0.256036
12.8284	12.6845	0.324088	0.253753
12.8289	12.685	0.324326	0.252564
12.8294	12.6855	0.326163	0.251518
12.8298	12.686	0.325453	0.24553
12.8303	12.6865	0.325668	0.242805
12.8308	12.6869	0.32701	0.238427
12.8312	12.6874	0.327125	0.23733
12.8317	12.6879	0.326575	0.233377
12.8322	12.6884	0.328298	0.230117
12.8327	12.6888	0.329883	0.227265
12.8331	12.6893	0.327688	0.225187
12.8336	12.6898	0.327349	0.226194
12.8341	12.6902	0.330716	0.227285
12.8346	12.6907	0.325682	0.226789
12.835	12.6912	0.325831	0.227439
12.8355	12.6916	0.327988	0.233221
12.836	12.6921	0.326541	0.237154
12.8364	12.6926	0.326293	0.241197
12.8369	12.693	0.326261	0.245758
12.8374	12.6935	0.32887	0.250181
12.8379	12.694	0.324231	0.253655
12.8383	12.6944	0.326967	0.260235
12.8388	12.6949	0.32784	0.263306
12.8393	12.6954	0.327079	0.263143
12.8397	12.6959	0.328501	0.265888
12.8402	12.6963	0.326139	0.267412
12.8407	12.6968	0.325439	0.26699
12.8412	12.6973	0.326098	0.264228
12.8416	12.6978	0.327898	0.262924
12.8421	12.6982	0.327075	0.257935
12.8426	12.6987	0.323566	0.255455
12.8431	12.6992	0.325145	0.254733
12.8435	12.6996	0.327407	0.250044
12.844	12.7001	0.325237	0.245032
12.8445	12.7006	0.325909	0.24148
12.8449	12.701	0.326718	0.238643
12.8454	12.7015	0.325258	0.235818
12.8459	12.702	0.324197	0.232087
12.8464	12.7025	0.32622	0.230616
12.8468	12.7029	0.329799	0.230998
12.8473	12.7034	0.32436	0.229206
12.8478	12.7039	0.326516	0.231759
12.8482	12.7043	0.327415	0.236092
12.8487	12.7048	0.326127	0.239552
12.8492	12.7053	0.325696	0.244781
12.8497	12.7058	0.326319	0.254598
12.8501	12.7063	0.325108	0.263333
12.8506	12.7067	0.326204	0.272087
12.8511	12.7072	0.327441	0.282964
12.8516	12.7077	0.329855	0.29507
12.852	12.7082	0.326515	0.307748
12.8525	12.7087	0.326542	0.322368
12.853	12.7091	0.32851	0.337995
12.8534	12.7096	0.328512	0.350197
12.8539	12.71	0.327148	0.362079
12.8544	12.7105	0.327318	0.376393
12.8549	12.711	0.3275	0.390387
12.8553	12.7115	0.327982	0.402764
12.8558	12.7119	0.327947	0.412174
12.8563	12.7124	0.328767	0.426886
12.8567	12.7129	0.326182	0.433736
12.8572	12.7133	0.327133	0.443733
12.8577	12.7138	0.327451	0.452039
12.8582	12.7143	0.3277	0.45973
12.8586	12.7148	0.327896	0.466991
12.8591	12.7152	0.326892	0.477029
12.8596	12.7157	0.325886	0.485441
12.8601	12.7162	0.32659	0.492665
12.8605	12.7167	0.328289	0.50334
12.861	12.7172	0.328157	0.512589
12.8615	12.7176	0.32632	0.515716
12.8619	12.7181	0.326535	0.521993
12.8624	12.7186	0.326676	0.520122
12.8629	12.719	0.325103	0.515708
12.8634	12.7195	0.3262	0.512052
12.8638	12.72	0.325594	0.508427
12.8643	12.7204	0.324589	0.504614
12.8648	12.7209	0.323641	0.50144
12.8652	12.7214	0.325479	0.50569
12.8657	12.7219	0.326835	0.515077
12.8662	12.7223	0.324479	0.52881
12.8667	12.7228	0.324331	0.556925
12.8671	12.7232	0.324643	0.5921
12.8676	12.7237	0.32457	0.6353
12.8681	12.7242	0.322138	0.687157
12.8686	12.7246	0.321459	0.740309
12.869	12.7251	0.319684	0.789422
12.8695	12.7256	0.319079	0.826672
12.87	12.7261	0.321657	0.861819
12.8704	12.7265	0.322879	0.885861
12.8709	12.727	0.322034	0.899405
12.8714	12.7275	0.321882	0.917711
12.8719	12.728	0.323826	0.92849
12.8723	12.7285	0.324284	0.933005
12.8728	12.7289	0.324963	0.937228
12.8733	12.7294	0.326202	0.949294
12.8737	12.7298	0.324055	0.953341
12.8742	12.7303	0.322321	0.951617
12.8747	12.7308	0.326201	0.958802
12.8752	12.7313	0.326605	0.966503
12.8756	12.7318	0.322993	0.960987
12.8761	12.7322	0.322682	0.965606
12.8766	12.7327	0.325294	0.970486
12.8771	12.7332	0.326326	0.970087
12.8775	12.7336	0.324765	0.970034
12.878	12.7341	0.322746	0.969599
12.8785	12.7346	0.323374	0.97496
12.8789	12.7351	0.323162	0.970974
12.8794	12.7355	0.32528	0.975114
12.8799	12.736	0.328937	0.991519
12.8804	12.7365	0.327589	0.989834
12.8808	12.737	0.324691	0.984654
12.8813	12.7375	0.325655	0.98428
12.8818	12.738	0.326048	0.98617
12.8822	12.7384	0.325995	0.983566
12.8827	12.7389	0.327132	0.988127
12.8832	12.7393	0.325006	0.987902
12.8837	12.7398	0.324302	0.983125
12.8841	12.7403	0.326376	0.985481
12.8846	12.7408	0.326812	0.989063
12.8851	12.7412	0.325282	0.985303
12.8856	12.7417	0.325007	0.989316
12.886	12.7422	0.324958	0.992144
12.8865	12.7426	0.328235	0.991732
12.887	12.7431	0.327446	0.989926
12.8874	12.7436	0.328081	0.989814
12.8879	12.744	0.326472	0.997209
12.8884	12.7445	0.325999	0.990626
12.8889	12.745	0.328773	0.997271
12.8893	12.7455	0.328471	0.99845
12.8898	12.746	0.327364	0.99487
12.8903	12.7464	0.32835	1.00211
12.8907	12.7469	0.327835	0.998216
12.8912	12.7474	0.329045	0.997677
12.8917	12.7479	0.328505	0.995023
12.8922	12.7483	0.331337	1.00164
12.8926	12.7488	0.327978	1.00274
12.8931	12.7493	0.32813	0.997417
12.8936	12.7497	0.332098	1.00627
12.8941	12.7502	0.330841	1.00774
12.8945	12.7507	0.328645	1.00205
12.895	12.7511	0.329046	1.00673
12.8955	12.7516	0.331365	1.00925
12.8959	12.7521	0.330823	1.00765
12.8964	12.7525	0.328966	1.00529
12.8969	12.753	0.331072	1.00856
12.8974	12.7535	0.329192	1.00793
12.8978	12.7539	0.329349	1.00258
12.8983	12.7544	0.332133	1.01023
12.8988	12.7549	0.332236	1.0115
