# 1304     AichiSR QXAFS
# Start     : 8.9544
# End       : 9.0544
# Dir       : Forward
# Points    : 300
# ScanTime  : 1.01549
# Date      : 13.04.23 22:20
# Ring Cur. : 25.5[mA]
12.7557	12.7557	0.401635	1.22462
12.7562	12.7552	0.401006	1.22249
12.7566	12.7548	0.401735	1.22203
12.7571	12.7543	0.402482	1.22441
12.7576	12.7538	0.402988	1.22451
12.7581	12.7533	0.401372	1.2238
12.7585	12.7529	0.402022	1.22247
12.759	12.7524	0.402133	1.22142
12.7595	12.752	0.403351	1.22339
12.7599	12.7515	0.401882	1.22161
12.7604	12.751	0.400528	1.22141
12.7609	12.7505	0.401212	1.21996
12.7614	12.7501	0.402846	1.22017
12.7618	12.7496	0.401452	1.22025
12.7623	12.7491	0.401561	1.22181
12.7628	12.7487	0.400972	1.21909
12.7632	12.7482	0.400323	1.21595
12.7637	12.7477	0.401562	1.21523
12.7642	12.7473	0.401483	1.21987
12.7647	12.7468	0.399804	1.21911
12.7651	12.7463	0.399528	1.21521
12.7656	12.7458	0.400171	1.21385
12.7661	12.7454	0.400333	1.21584
12.7666	12.7449	0.399634	1.21712
12.767	12.7444	0.399484	1.21692
12.7675	12.7439	0.400741	1.21424
12.768	12.7435	0.398965	1.21194
12.7684	12.743	0.39991	1.21355
12.7689	12.7425	0.399859	1.2143
12.7694	12.7421	0.399837	1.21229
12.7699	12.7416	0.399413	1.21341
12.7703	12.7411	0.399567	1.20913
12.7708	12.7406	0.399521	1.2075
12.7713	12.7402	0.400742	1.20909
12.7717	12.7397	0.398043	1.21251
12.7722	12.7392	0.398534	1.20558
12.7727	12.7388	0.398133	1.20636
12.7732	12.7383	0.399866	1.20451
12.7736	12.7378	0.399147	1.21016
12.7741	12.7374	0.399574	1.20917
12.7746	12.7369	0.398395	1.20209
12.7751	12.7364	0.39733	1.20011
12.7755	12.7359	0.399506	1.19859
12.776	12.7354	0.399261	1.20291
12.7765	12.735	0.397035	1.19631
12.7769	12.7345	0.397009	1.19353
12.7774	12.734	0.397932	1.19392
12.7779	12.7335	0.399974	1.1917
12.7784	12.733	0.39981	1.19288
12.7788	12.7326	0.39647	1.18872
12.7793	12.7321	0.396759	1.1885
12.7798	12.7317	0.396405	1.17798
12.7802	12.7312	0.397864	1.17975
12.7807	12.7307	0.398785	1.17741
12.7812	12.7302	0.395638	1.17709
12.7817	12.7297	0.396346	1.17097
12.7821	12.7293	0.39675	1.16426
12.7826	12.7288	0.397841	1.1558
12.7831	12.7284	0.396669	1.15496
12.7836	12.7279	0.395834	1.14769
12.784	12.7274	0.394969	1.13051
12.7845	12.7269	0.394664	1.11681
12.785	12.7265	0.394438	1.10102
12.7854	12.726	0.39451	1.08228
12.7859	12.7255	0.391037	1.05149
12.7864	12.725	0.391341	1.00952
12.7869	12.7245	0.390619	0.965074
12.7873	12.7241	0.391552	0.910844
12.7878	12.7236	0.391842	0.84972
12.7883	12.7231	0.391638	0.789817
12.7887	12.7227	0.39424	0.735028
12.7892	12.7222	0.395169	0.685624
12.7897	12.7218	0.394102	0.651158
12.7902	12.7213	0.395997	0.633011
12.7906	12.7208	0.393655	0.618511
12.7911	12.7203	0.393649	0.611733
12.7916	12.7198	0.394741	0.609634
12.7921	12.7194	0.396313	0.613621
12.7925	12.7189	0.396171	0.620836
12.793	12.7185	0.393802	0.62447
12.7935	12.718	0.392849	0.625766
12.7939	12.7175	0.395407	0.624877
12.7944	12.7171	0.394654	0.621672
12.7949	12.7166	0.395517	0.617943
12.7954	12.7161	0.391969	0.607042
12.7958	12.7156	0.39366	0.593484
12.7963	12.7151	0.39324	0.583194
12.7968	12.7147	0.392464	0.573436
12.7972	12.7142	0.393162	0.562464
12.7977	12.7137	0.391632	0.553375
12.7982	12.7132	0.392082	0.542374
12.7987	12.7128	0.392891	0.529975
12.7991	12.7123	0.393585	0.521826
12.7996	12.7118	0.393815	0.510722
12.8001	12.7114	0.39228	0.498087
12.8006	12.7109	0.392408	0.482533
12.801	12.7104	0.392574	0.465725
12.8015	12.7099	0.393649	0.451489
12.802	12.7095	0.393494	0.439254
12.8024	12.709	0.391039	0.419743
12.8029	12.7086	0.392012	0.40182
12.8034	12.7081	0.393036	0.385168
12.8039	12.7076	0.391066	0.370009
12.8043	12.7071	0.392245	0.357038
12.8048	12.7066	0.390563	0.342132
12.8053	12.7062	0.39117	0.326536
12.8057	12.7057	0.390618	0.315318
12.8062	12.7052	0.392257	0.305096
12.8067	12.7047	0.391483	0.296359
12.8072	12.7042	0.392018	0.290334
12.8076	12.7038	0.390107	0.282769
12.8081	12.7033	0.391578	0.277489
12.8086	12.7028	0.396557	0.278522
12.8091	12.7024	0.39419	0.277456
12.8095	12.7019	0.39038	0.276259
12.81	12.7014	0.388493	0.276459
12.8105	12.7009	0.391986	0.279738
12.8109	12.7005	0.391115	0.283038
12.8114	12.7	0.391927	0.290653
12.8119	12.6995	0.389117	0.293898
12.8124	12.6991	0.391155	0.296537
12.8128	12.6986	0.390091	0.301517
12.8133	12.6981	0.390677	0.305522
12.8138	12.6977	0.391971	0.311576
12.8142	12.6972	0.388389	0.312835
12.8147	12.6967	0.387609	0.314286
12.8152	12.6962	0.392136	0.314297
12.8157	12.6958	0.391763	0.316453
12.8161	12.6953	0.392166	0.317093
12.8166	12.6948	0.389973	0.315328
12.8171	12.6943	0.389877	0.312122
12.8176	12.6939	0.390573	0.307105
12.818	12.6934	0.39037	0.304259
12.8185	12.6929	0.391481	0.300198
12.819	12.6925	0.387177	0.294665
12.8194	12.692	0.388635	0.286832
12.8199	12.6915	0.3912	0.28
12.8204	12.6911	0.391358	0.278276
12.8209	12.6906	0.390434	0.274554
12.8213	12.6901	0.390565	0.272186
12.8218	12.6897	0.39113	0.267674
12.8223	12.6892	0.391737	0.267808
12.8227	12.6887	0.391955	0.26929
12.8232	12.6883	0.392165	0.273486
12.8237	12.6878	0.390218	0.274427
12.8242	12.6873	0.391064	0.276851
12.8246	12.6868	0.391244	0.279021
12.8251	12.6864	0.391035	0.286408
12.8256	12.6859	0.389868	0.290171
12.8261	12.6854	0.388835	0.294637
12.8265	12.6849	0.389686	0.295661
12.827	12.6844	0.390999	0.300145
12.8275	12.684	0.389998	0.303613
12.8279	12.6835	0.389309	0.309496
12.8284	12.683	0.389536	0.311421
12.8289	12.6826	0.389942	0.312892
12.8294	12.6821	0.391846	0.316387
12.8298	12.6816	0.391084	0.320416
12.8303	12.6812	0.392051	0.323719
12.8308	12.6807	0.391278	0.327038
12.8312	12.6802	0.392001	0.328497
12.8317	12.6797	0.391182	0.330161
12.8322	12.6793	0.391134	0.33459
12.8327	12.6788	0.392611	0.337717
12.8331	12.6783	0.392076	0.338373
12.8336	12.6779	0.393436	0.335611
12.8341	12.6774	0.395134	0.339017
12.8346	12.6769	0.391633	0.337893
12.835	12.6764	0.393331	0.340269
12.8355	12.6759	0.393285	0.340361
12.836	12.6755	0.393406	0.336578
12.8364	12.675	0.393044	0.337187
12.8369	12.6745	0.392635	0.336872
12.8374	12.674	0.394223	0.336487
12.8379	12.6735	0.39232	0.33402
12.8383	12.6731	0.392645	0.332655
12.8388	12.6726	0.393925	0.331393
12.8393	12.6722	0.393144	0.330797
12.8397	12.6717	0.393392	0.329545
12.8402	12.6712	0.394127	0.327788
12.8407	12.6707	0.393032	0.323957
12.8412	12.6703	0.395102	0.322806
12.8416	12.6698	0.392535	0.321853
12.8421	12.6693	0.394516	0.320434
12.8426	12.6689	0.393168	0.31741
12.8431	12.6684	0.39331	0.313088
12.8435	12.6679	0.394676	0.312066
12.844	12.6675	0.393258	0.308809
12.8445	12.667	0.392693	0.308528
12.8449	12.6665	0.393581	0.30525
12.8454	12.666	0.39441	0.300478
12.8459	12.6656	0.394668	0.299394
12.8464	12.6651	0.394592	0.297115
12.8468	12.6646	0.393005	0.296823
12.8473	12.6641	0.393725	0.292895
12.8478	12.6637	0.392932	0.287682
12.8482	12.6632	0.394183	0.288064
12.8487	12.6627	0.394645	0.287597
12.8492	12.6623	0.393463	0.286121
12.8497	12.6618	0.393454	0.283307
12.8501	12.6613	0.393726	0.279231
12.8506	12.6609	0.395776	0.277681
12.8511	12.6604	0.393337	0.27774
12.8516	12.6599	0.393762	0.27549
12.852	12.6594	0.39065	0.274098
12.8525	12.659	0.390488	0.271881
12.853	12.6585	0.39248	0.270475
12.8534	12.6581	0.393629	0.270158
12.8539	12.6576	0.391157	0.27116
12.8544	12.6571	0.392801	0.270127
12.8549	12.6566	0.39226	0.26913
12.8553	12.6561	0.393983	0.26976
12.8558	12.6557	0.391837	0.272719
12.8563	12.6552	0.392605	0.274963
12.8567	12.6547	0.393055	0.27456
12.8572	12.6542	0.391633	0.274472
12.8577	12.6537	0.394893	0.276823
12.8582	12.6533	0.394309	0.280548
12.8586	12.6528	0.394183	0.282232
12.8591	12.6523	0.393014	0.283468
12.8596	12.6519	0.392938	0.284666
12.8601	12.6514	0.393799	0.28758
12.8605	12.6509	0.393657	0.29091
12.861	12.6505	0.39274	0.294516
12.8615	12.65	0.39296	0.295784
12.8619	12.6495	0.392587	0.297279
12.8624	12.649	0.395373	0.300501
12.8629	12.6486	0.393682	0.302884
12.8634	12.6481	0.391459	0.304958
12.8638	12.6476	0.391305	0.306972
12.8643	12.6472	0.390952	0.306045
12.8648	12.6467	0.391373	0.308601
12.8652	12.6462	0.388774	0.309303
12.8657	12.6457	0.389242	0.311417
12.8662	12.6452	0.388395	0.312442
12.8667	12.6447	0.387953	0.312143
12.8671	12.6443	0.389748	0.313709
12.8676	12.6438	0.391834	0.316502
12.8681	12.6433	0.390172	0.316622
12.8686	12.6429	0.391568	0.317798
12.869	12.6424	0.392327	0.31857
12.8695	12.642	0.392349	0.31797
12.87	12.6415	0.393138	0.31938
12.8704	12.641	0.393135	0.320622
12.8709	12.6405	0.392784	0.319908
12.8714	12.6401	0.391939	0.317505
12.8719	12.6396	0.393693	0.3185
12.8723	12.6391	0.392424	0.319461
12.8728	12.6387	0.389648	0.318934
12.8733	12.6382	0.390988	0.317668
12.8737	12.6377	0.391232	0.315182
12.8742	12.6373	0.394018	0.314796
12.8747	12.6368	0.392429	0.315529
12.8752	12.6363	0.38997	0.316735
12.8756	12.6358	0.391113	0.314906
12.8761	12.6354	0.391451	0.313213
12.8766	12.6349	0.39277	0.312277
12.8771	12.6344	0.392169	0.313617
12.8775	12.6339	0.390113	0.311682
12.878	12.6335	0.389074	0.312008
12.8785	12.633	0.390328	0.309072
12.8789	12.6325	0.390616	0.30979
12.8794	12.6321	0.390613	0.311395
12.8799	12.6316	0.390401	0.312838
12.8804	12.6311	0.390351	0.310468
12.8808	12.6306	0.389503	0.310683
12.8813	12.6302	0.392758	0.310624
12.8818	12.6297	0.391606	0.312539
12.8822	12.6292	0.389504	0.311042
12.8827	12.6288	0.390083	0.310657
12.8832	12.6283	0.38924	0.310811
12.8837	12.6278	0.390375	0.311409
12.8841	12.6273	0.389679	0.312776
12.8846	12.6269	0.390409	0.312519
12.8851	12.6264	0.388986	0.311452
12.8856	12.6259	0.38823	0.307538
12.886	12.6254	0.389841	0.309043
12.8865	12.6249	0.390946	0.311162
12.887	12.6245	0.387093	0.309111
12.8874	12.624	0.388531	0.307757
12.8879	12.6235	0.389197	0.304826
12.8884	12.6231	0.3893	0.305293
12.8889	12.6226	0.388997	0.305408
12.8893	12.6221	0.387755	0.305041
12.8898	12.6217	0.388493	0.302645
12.8903	12.6212	0.388575	0.301775
12.8907	12.6207	0.388311	0.301912
12.8912	12.6202	0.3879	0.303495
12.8917	12.6197	0.387208	0.302692
12.8922	12.6193	0.388612	0.30182
12.8926	12.6188	0.387877	0.300377
12.8931	12.6183	0.388181	0.301237
12.8936	12.6179	0.387818	0.300404
12.8941	12.6174	0.387794	0.302478
12.8945	12.6169	0.386253	0.299796
12.895	12.6164	0.387405	0.300708
12.8955	12.616	0.388391	0.301153
12.8959	12.6155	0.388665	0.301704
12.8964	12.615	0.386699	0.301234
12.8969	12.6145	0.387744	0.30014
12.8974	12.6141	0.38703	0.299211
12.8978	12.6136	0.385794	0.298441
12.8983	12.6131	0.387633	0.298968
12.8988	12.6127	0.385663	0.298985
