# 1304     AichiSR QXAFS
# Start     : 8.9544
# End       : 9.0544
# Dir       : Backward
# Points    : 300
# ScanTime  : 1.01549
# Date      : 13.04.23 22:32
# Ring Cur. : 25.6[mA]
12.7557	12.6118	0.304023	0.234625
12.7562	12.6123	0.303274	0.233242
12.7566	12.6127	0.30248	0.231913
12.7571	12.6132	0.304889	0.234151
12.7576	12.6137	0.303824	0.23483
12.7581	12.6141	0.306361	0.237275
12.7585	12.6146	0.308054	0.238693
12.759	12.6151	0.304717	0.235146
12.7595	12.6156	0.308321	0.23867
12.7599	12.6161	0.308281	0.241058
12.7604	12.6165	0.30817	0.240715
12.7609	12.617	0.306271	0.240439
12.7614	12.6175	0.306222	0.239025
12.7618	12.618	0.309677	0.239312
12.7623	12.6184	0.306596	0.239393
12.7628	12.6189	0.306688	0.240709
12.7632	12.6194	0.307814	0.24067
12.7637	12.6198	0.308561	0.239851
12.7642	12.6203	0.308969	0.239656
12.7647	12.6208	0.30833	0.241322
12.7651	12.6213	0.308948	0.241934
12.7656	12.6217	0.308471	0.242016
12.7661	12.6222	0.309109	0.241707
12.7666	12.6227	0.311438	0.242093
12.767	12.6231	0.310494	0.244411
12.7675	12.6236	0.309173	0.245307
12.768	12.6241	0.310791	0.244822
12.7684	12.6246	0.309489	0.244699
12.7689	12.625	0.311065	0.247617
12.7694	12.6255	0.310851	0.247478
12.7699	12.626	0.310844	0.248383
12.7703	12.6265	0.309062	0.248419
12.7708	12.627	0.308264	0.246391
12.7713	12.6274	0.311987	0.248598
12.7717	12.6279	0.311138	0.248661
12.7722	12.6284	0.309394	0.250154
12.7727	12.6289	0.311527	0.250197
12.7732	12.6293	0.312748	0.249484
12.7736	12.6298	0.312	0.249966
12.7741	12.6302	0.312192	0.251573
12.7746	12.6307	0.313106	0.252103
12.7751	12.6312	0.311887	0.249809
12.7755	12.6317	0.315349	0.25096
12.776	12.6321	0.314701	0.249929
12.7765	12.6326	0.312576	0.249646
12.7769	12.6331	0.310789	0.249621
12.7774	12.6335	0.312446	0.249392
12.7779	12.634	0.313855	0.249675
12.7784	12.6345	0.314993	0.250357
12.7788	12.6349	0.314259	0.252773
12.7793	12.6354	0.31271	0.252649
12.7798	12.6359	0.314139	0.251997
12.7802	12.6364	0.31541	0.253072
12.7807	12.6369	0.316431	0.253112
12.7812	12.6373	0.314475	0.254532
12.7817	12.6378	0.314979	0.257232
12.7821	12.6383	0.316154	0.256479
12.7826	12.6387	0.315122	0.254232
12.7831	12.6392	0.315514	0.25635
12.7836	12.6397	0.317551	0.25937
12.784	12.6401	0.315159	0.259009
12.7845	12.6406	0.314428	0.255078
12.785	12.6411	0.316531	0.257913
12.7854	12.6416	0.317806	0.258768
12.7859	12.642	0.31484	0.258398
12.7864	12.6425	0.314496	0.259976
12.7869	12.6429	0.316621	0.257974
12.7873	12.6434	0.315677	0.256839
12.7878	12.6439	0.317545	0.257829
12.7883	12.6443	0.317239	0.258019
12.7887	12.6448	0.316104	0.256269
12.7892	12.6453	0.315155	0.254137
12.7897	12.6458	0.314777	0.253381
12.7902	12.6463	0.316362	0.253324
12.7906	12.6467	0.316213	0.252
12.7911	12.6472	0.317489	0.254087
12.7916	12.6477	0.31469	0.248974
12.7921	12.6482	0.317282	0.248086
12.7925	12.6487	0.318667	0.248298
12.793	12.6491	0.319881	0.247897
12.7935	12.6496	0.317714	0.24659
12.7939	12.6501	0.317461	0.241996
12.7944	12.6505	0.318656	0.240901
12.7949	12.651	0.320976	0.24102
12.7954	12.6515	0.322051	0.238438
12.7958	12.652	0.318606	0.236595
12.7963	12.6524	0.321622	0.233594
12.7968	12.6529	0.321499	0.232492
12.7972	12.6534	0.321046	0.230581
12.7977	12.6538	0.321404	0.229816
12.7982	12.6543	0.322352	0.229865
12.7987	12.6548	0.320169	0.224715
12.7991	12.6553	0.321266	0.222568
12.7996	12.6557	0.321951	0.223491
12.8001	12.6562	0.321082	0.224548
12.8006	12.6567	0.320747	0.22293
12.801	12.6572	0.320934	0.220472
12.8015	12.6577	0.321793	0.220919
12.802	12.6581	0.322998	0.222222
12.8024	12.6586	0.322549	0.224479
12.8029	12.6591	0.322498	0.223732
12.8034	12.6595	0.322267	0.223462
12.8039	12.66	0.322416	0.224187
12.8043	12.6605	0.323918	0.22772
12.8048	12.6609	0.323134	0.228776
12.8053	12.6614	0.322615	0.231104
12.8057	12.6619	0.32384	0.229874
12.8062	12.6623	0.321771	0.229206
12.8067	12.6628	0.321895	0.234143
12.8072	12.6633	0.325054	0.237343
12.8076	12.6637	0.322849	0.238965
12.8081	12.6642	0.323731	0.238533
12.8086	12.6647	0.324219	0.240337
12.8091	12.6652	0.32544	0.242784
12.8095	12.6656	0.324831	0.245343
12.81	12.6661	0.327642	0.250318
12.8105	12.6666	0.324712	0.249161
12.8109	12.6671	0.324351	0.250063
12.8114	12.6675	0.324998	0.253198
12.8119	12.668	0.325865	0.256311
12.8124	12.6685	0.325883	0.25968
12.8128	12.669	0.322938	0.258832
12.8133	12.6694	0.32506	0.261505
12.8138	12.6699	0.324116	0.263168
12.8142	12.6703	0.323924	0.265922
12.8147	12.6708	0.324401	0.268385
12.8152	12.6713	0.325359	0.269351
12.8157	12.6718	0.325825	0.269258
12.8161	12.6722	0.325182	0.270819
12.8166	12.6727	0.328131	0.275859
12.8171	12.6732	0.326785	0.27735
12.8176	12.6736	0.324655	0.275515
12.818	12.6741	0.327177	0.277381
12.8185	12.6746	0.328022	0.281327
12.819	12.6751	0.326214	0.280069
12.8194	12.6755	0.324157	0.279507
12.8199	12.676	0.325413	0.280615
12.8204	12.6765	0.324797	0.280171
12.8209	12.677	0.324677	0.280712
12.8213	12.6775	0.326547	0.282535
12.8218	12.6779	0.32569	0.282813
12.8223	12.6784	0.324348	0.279044
12.8227	12.6789	0.32772	0.281622
12.8232	12.6793	0.328608	0.281301
12.8237	12.6798	0.327777	0.279503
12.8242	12.6803	0.32621	0.277654
12.8246	12.6808	0.328434	0.276145
12.8251	12.6812	0.32716	0.271537
12.8256	12.6817	0.324735	0.269735
12.8261	12.6822	0.325919	0.268575
12.8265	12.6826	0.324506	0.265301
12.827	12.6831	0.323805	0.260145
12.8275	12.6836	0.325713	0.259808
12.8279	12.684	0.324794	0.257275
12.8284	12.6845	0.323799	0.254655
12.8289	12.685	0.326606	0.254509
12.8294	12.6855	0.327041	0.249942
12.8298	12.686	0.328742	0.246833
12.8303	12.6864	0.328647	0.244204
12.8308	12.6869	0.328015	0.242819
12.8312	12.6874	0.327391	0.237259
12.8317	12.6879	0.326901	0.2325
12.8322	12.6884	0.328962	0.231373
12.8327	12.6888	0.327222	0.227658
12.8331	12.6893	0.328051	0.228229
12.8336	12.6897	0.327907	0.226316
12.8341	12.6902	0.32858	0.224982
12.8346	12.6907	0.32886	0.226591
12.835	12.6912	0.327096	0.228642
12.8355	12.6916	0.32831	0.234165
12.836	12.6921	0.327655	0.237569
12.8364	12.6926	0.327057	0.24038
12.8369	12.693	0.330048	0.246269
12.8374	12.6935	0.328622	0.251279
12.8379	12.6939	0.327551	0.256784
12.8383	12.6944	0.32721	0.260789
12.8388	12.6949	0.327638	0.261885
12.8393	12.6954	0.329931	0.265076
12.8397	12.6959	0.327365	0.266214
12.8402	12.6963	0.326736	0.268867
12.8407	12.6968	0.326415	0.265617
12.8412	12.6973	0.326234	0.263182
12.8416	12.6978	0.329681	0.262914
12.8421	12.6982	0.326097	0.261664
12.8426	12.6987	0.326734	0.259102
12.8431	12.6991	0.327175	0.255991
12.8435	12.6996	0.327951	0.24967
12.844	12.7001	0.329634	0.24733
12.8445	12.7005	0.328049	0.243365
12.8449	12.701	0.328459	0.242312
12.8454	12.7015	0.328693	0.238392
12.8459	12.702	0.325531	0.231446
12.8464	12.7024	0.328242	0.231153
12.8468	12.7029	0.328019	0.231028
12.8473	12.7034	0.325478	0.231393
12.8478	12.7038	0.326801	0.231034
12.8482	12.7043	0.327091	0.234166
12.8487	12.7048	0.329283	0.240382
12.8492	12.7053	0.327576	0.246266
12.8497	12.7058	0.329083	0.256975
12.8501	12.7063	0.32847	0.264799
12.8506	12.7067	0.327338	0.271889
12.8511	12.7072	0.331197	0.286009
12.8516	12.7077	0.331855	0.298988
12.852	12.7082	0.327701	0.311014
12.8525	12.7086	0.32784	0.321595
12.853	12.7091	0.329978	0.336767
12.8534	12.7096	0.330016	0.349998
12.8539	12.71	0.328932	0.363341
12.8544	12.7105	0.329702	0.379448
12.8549	12.711	0.328417	0.389607
12.8553	12.7115	0.328532	0.401358
12.8558	12.7119	0.330603	0.415719
12.8563	12.7124	0.329325	0.427185
12.8567	12.7129	0.327761	0.437587
12.8572	12.7133	0.329759	0.446409
12.8577	12.7138	0.329948	0.454979
12.8582	12.7143	0.330861	0.46287
12.8586	12.7148	0.330935	0.474779
12.8591	12.7152	0.330826	0.482479
12.8596	12.7157	0.330241	0.487672
12.8601	12.7162	0.329513	0.495344
12.8605	12.7167	0.329267	0.506771
12.861	12.7171	0.329015	0.5142
12.8615	12.7176	0.328488	0.520316
12.8619	12.7181	0.328659	0.525098
12.8624	12.7186	0.327897	0.523338
12.8629	12.719	0.327652	0.519637
12.8634	12.7195	0.327792	0.516739
12.8638	12.7199	0.328607	0.514931
12.8643	12.7204	0.32813	0.50971
12.8648	12.7209	0.326549	0.505223
12.8652	12.7214	0.328687	0.510114
12.8657	12.7218	0.328175	0.519765
12.8662	12.7223	0.325639	0.534402
12.8667	12.7228	0.326173	0.557405
12.8671	12.7232	0.326969	0.593976
12.8676	12.7237	0.325579	0.636368
12.8681	12.7242	0.325402	0.688375
12.8686	12.7246	0.322425	0.748045
12.869	12.7251	0.322171	0.790017
12.8695	12.7256	0.323548	0.828746
12.87	12.7261	0.325215	0.863034
12.8704	12.7265	0.327121	0.894997
12.8709	12.727	0.324473	0.910178
12.8714	12.7275	0.325513	0.92366
12.8719	12.728	0.328418	0.94005
12.8723	12.7284	0.327054	0.938964
12.8728	12.7289	0.325787	0.946338
12.8733	12.7294	0.326639	0.958366
12.8737	12.7298	0.326097	0.957516
12.8742	12.7303	0.325502	0.957534
12.8747	12.7308	0.327958	0.966
12.8752	12.7313	0.327786	0.971097
12.8756	12.7317	0.325761	0.970088
12.8761	12.7322	0.326813	0.972173
12.8766	12.7327	0.327995	0.978568
12.8771	12.7331	0.32714	0.974949
12.8775	12.7336	0.327515	0.979076
12.878	12.7341	0.327728	0.988623
12.8785	12.7346	0.327203	0.981853
12.8789	12.735	0.327078	0.979515
12.8794	12.7355	0.327345	0.986818
12.8799	12.736	0.328886	0.99071
12.8804	12.7365	0.326522	0.98716
12.8808	12.737	0.326597	0.984949
12.8813	12.7375	0.328886	0.992362
12.8818	12.7379	0.329075	0.988164
12.8822	12.7384	0.326983	0.990616
12.8827	12.7389	0.326687	0.995815
12.8832	12.7393	0.327668	0.993025
12.8837	12.7398	0.328119	0.993059
12.8841	12.7403	0.328768	0.99336
12.8846	12.7407	0.328729	0.996933
12.8851	12.7412	0.327813	0.999225
12.8856	12.7417	0.327657	0.992914
12.886	12.7422	0.328345	0.997953
12.8865	12.7426	0.329715	0.99899
12.887	12.7431	0.329475	0.998431
12.8874	12.7436	0.330392	1.00584
12.8879	12.744	0.327468	0.996189
12.8884	12.7445	0.328711	0.998478
12.8889	12.745	0.329537	1.00323
12.8893	12.7455	0.33036	1.00533
12.8898	12.7459	0.327897	1.00086
12.8903	12.7464	0.329705	1.00429
12.8907	12.7469	0.330535	1.00418
12.8912	12.7474	0.332464	1.00934
12.8917	12.7478	0.332626	1.01161
12.8922	12.7483	0.332277	1.01171
12.8926	12.7488	0.328817	0.998766
12.8931	12.7492	0.328621	1.00006
12.8936	12.7497	0.331757	1.00855
12.8941	12.7502	0.330956	1.00976
12.8945	12.7506	0.329144	1.00599
12.895	12.7511	0.328811	1.00498
12.8955	12.7516	0.332772	1.00713
12.8959	12.7521	0.331295	1.00565
12.8964	12.7525	0.331227	1.0097
12.8969	12.753	0.329948	1.0112
12.8974	12.7534	0.329533	1.0032
12.8978	12.7539	0.330966	1.00792
12.8983	12.7544	0.331627	1.009
12.8988	12.7548	0.33127	1.00769
