# 1304     AichiSR QXAFS
# Start     : 8.9544
# End       : 9.0544
# Dir       : Forward
# Points    : 300
# ScanTime  : 1.01549
# Date      : 13.04.23 22:22
# Ring Cur. : 25.5[mA]
12.7557	12.7557	0.395601	1.21106
12.7562	12.7552	0.395632	1.20581
12.7566	12.7548	0.397561	1.20645
12.7571	12.7543	0.39647	1.2087
12.7576	12.7538	0.396399	1.21069
12.7581	12.7533	0.395646	1.20711
12.7585	12.7529	0.395805	1.20822
12.759	12.7524	0.397805	1.20773
12.7595	12.752	0.396368	1.20912
12.7599	12.7515	0.398147	1.21075
12.7604	12.751	0.396826	1.20905
12.7609	12.7505	0.394966	1.20553
12.7614	12.7501	0.396159	1.20579
12.7618	12.7496	0.398282	1.20782
12.7623	12.7491	0.398096	1.20883
12.7628	12.7487	0.397705	1.20971
12.7632	12.7482	0.396448	1.2082
12.7637	12.7477	0.397571	1.21096
12.7642	12.7473	0.398508	1.21021
12.7647	12.7468	0.396595	1.21283
12.7651	12.7463	0.398967	1.21022
12.7656	12.7458	0.397394	1.20395
12.7661	12.7454	0.398312	1.20778
12.7666	12.7449	0.398587	1.20964
12.767	12.7444	0.39731	1.21297
12.7675	12.7439	0.398814	1.21151
12.768	12.7435	0.397155	1.20851
12.7684	12.743	0.399625	1.20812
12.7689	12.7425	0.39737	1.20936
12.7694	12.7421	0.399064	1.21055
12.7699	12.7416	0.398598	1.21069
12.7703	12.7411	0.398471	1.20738
12.7708	12.7406	0.39834	1.206
12.7713	12.7402	0.399362	1.20871
12.7717	12.7397	0.398767	1.21092
12.7722	12.7392	0.398619	1.2062
12.7727	12.7388	0.39851	1.20539
12.7732	12.7383	0.39789	1.2036
12.7736	12.7378	0.400362	1.20535
12.7741	12.7374	0.398168	1.20914
12.7746	12.7369	0.399072	1.20356
12.7751	12.7364	0.398762	1.20051
12.7755	12.7359	0.399626	1.2007
12.776	12.7354	0.400422	1.20445
12.7765	12.7349	0.399358	1.20243
12.7769	12.7345	0.399835	1.19837
12.7774	12.734	0.399411	1.19519
12.7779	12.7335	0.40032	1.19529
12.7784	12.733	0.399579	1.19574
12.7788	12.7326	0.399486	1.1941
12.7793	12.7321	0.401086	1.19211
12.7798	12.7317	0.398674	1.18646
12.7802	12.7312	0.399983	1.18426
12.7807	12.7307	0.39984	1.18404
12.7812	12.7302	0.398024	1.17945
12.7817	12.7297	0.398654	1.17603
12.7821	12.7293	0.398437	1.1715
12.7826	12.7288	0.399315	1.16425
12.7831	12.7284	0.399744	1.15976
12.7836	12.7279	0.399063	1.15591
12.784	12.7274	0.399235	1.14223
12.7845	12.7269	0.398753	1.12638
12.785	12.7265	0.39861	1.11133
12.7854	12.726	0.396725	1.09183
12.7859	12.7255	0.393888	1.06458
12.7864	12.725	0.393992	1.02394
12.7869	12.7245	0.392326	0.974029
12.7873	12.7241	0.395496	0.920324
12.7878	12.7236	0.395654	0.865618
12.7883	12.7231	0.395981	0.803256
12.7887	12.7227	0.398047	0.746548
12.7892	12.7222	0.397073	0.696043
12.7897	12.7217	0.398915	0.661564
12.7902	12.7213	0.401214	0.64185
12.7906	12.7208	0.399472	0.626073
12.7911	12.7203	0.399724	0.618245
12.7916	12.7199	0.401311	0.618738
12.7921	12.7194	0.401024	0.620458
12.7925	12.7189	0.400767	0.627347
12.793	12.7185	0.399406	0.63072
12.7935	12.718	0.399136	0.633919
12.7939	12.7175	0.399033	0.632412
12.7944	12.7171	0.400561	0.628388
12.7949	12.7166	0.399075	0.626137
12.7954	12.7161	0.399348	0.617506
12.7958	12.7156	0.397812	0.604991
12.7963	12.7151	0.398297	0.592175
12.7968	12.7147	0.40101	0.584387
12.7972	12.7142	0.400525	0.573788
12.7977	12.7137	0.397482	0.56538
12.7982	12.7132	0.399388	0.553702
12.7987	12.7128	0.399996	0.540789
12.7991	12.7123	0.40094	0.531383
12.7996	12.7118	0.399881	0.522733
12.8001	12.7114	0.39914	0.507707
12.8006	12.7109	0.399203	0.490953
12.801	12.7104	0.400692	0.475598
12.8015	12.7099	0.401974	0.461185
12.802	12.7095	0.399858	0.445225
12.8024	12.709	0.398506	0.431928
12.8029	12.7085	0.399984	0.411904
12.8034	12.7081	0.396577	0.392995
12.8039	12.7076	0.3995	0.378599
12.8043	12.7071	0.400288	0.36556
12.8048	12.7066	0.397152	0.350499
12.8053	12.7062	0.398949	0.334535
12.8057	12.7057	0.40051	0.322688
12.8062	12.7052	0.399088	0.311431
12.8067	12.7047	0.40058	0.303818
12.8072	12.7042	0.398479	0.296911
12.8076	12.7038	0.399718	0.28783
12.8081	12.7033	0.400553	0.283436
12.8086	12.7028	0.399125	0.280827
12.8091	12.7024	0.398648	0.281235
12.8095	12.7019	0.397724	0.282535
12.81	12.7014	0.398879	0.284221
12.8105	12.7009	0.400368	0.285954
12.8109	12.7005	0.399361	0.288639
12.8114	12.7	0.399368	0.29558
12.8119	12.6995	0.397791	0.300152
12.8124	12.6991	0.399217	0.303777
12.8128	12.6986	0.398931	0.305738
12.8133	12.6981	0.399339	0.311501
12.8138	12.6977	0.40002	0.316869
12.8142	12.6972	0.397961	0.319489
12.8147	12.6967	0.399084	0.319962
12.8152	12.6962	0.398681	0.321727
12.8157	12.6958	0.39885	0.32281
12.8161	12.6953	0.399282	0.323428
12.8166	12.6948	0.397782	0.322066
12.8171	12.6943	0.396412	0.318594
12.8176	12.6939	0.397453	0.313518
12.818	12.6934	0.397781	0.310333
12.8185	12.6929	0.398038	0.306929
12.819	12.6925	0.396575	0.302329
12.8194	12.692	0.397404	0.293489
12.8199	12.6915	0.398539	0.287446
12.8204	12.6911	0.397165	0.284143
12.8209	12.6906	0.39897	0.280949
12.8213	12.6901	0.397203	0.276466
12.8218	12.6897	0.396662	0.273102
12.8223	12.6892	0.397287	0.271343
12.8227	12.6887	0.397341	0.273287
12.8232	12.6883	0.396483	0.274645
12.8237	12.6878	0.396331	0.278175
12.8242	12.6873	0.395942	0.281705
12.8246	12.6868	0.395935	0.282873
12.8251	12.6864	0.396	0.288008
12.8256	12.6859	0.396267	0.293752
12.8261	12.6854	0.393385	0.297754
12.8265	12.6849	0.395096	0.300445
12.827	12.6844	0.394796	0.303641
12.8275	12.684	0.393699	0.307039
12.8279	12.6835	0.394135	0.311515
12.8284	12.683	0.392887	0.313524
12.8289	12.6826	0.395248	0.31678
12.8294	12.6821	0.394852	0.318045
12.8298	12.6816	0.394637	0.321915
12.8303	12.6811	0.395621	0.327838
12.8308	12.6807	0.394985	0.33039
12.8312	12.6802	0.396158	0.332123
12.8317	12.6797	0.396336	0.33318
12.8322	12.6793	0.396725	0.33648
12.8327	12.6788	0.396557	0.340009
12.8331	12.6783	0.39479	0.33958
12.8336	12.6779	0.395235	0.339807
12.8341	12.6774	0.395967	0.339977
12.8346	12.6769	0.395514	0.342078
12.835	12.6764	0.395652	0.342829
12.8355	12.6759	0.395101	0.341901
12.836	12.6755	0.396024	0.339244
12.8364	12.675	0.397291	0.338496
12.8369	12.6745	0.395366	0.339484
12.8374	12.674	0.39499	0.338209
12.8379	12.6735	0.393503	0.336471
12.8383	12.6731	0.39532	0.335678
12.8388	12.6726	0.395208	0.333619
12.8393	12.6722	0.396184	0.332321
12.8397	12.6717	0.395487	0.332139
12.8402	12.6712	0.394627	0.329182
12.8407	12.6707	0.394698	0.327486
12.8412	12.6703	0.396332	0.323418
12.8416	12.6698	0.394614	0.321994
12.8421	12.6693	0.395786	0.320517
12.8426	12.6689	0.39524	0.319768
12.8431	12.6684	0.395404	0.314435
12.8435	12.6679	0.395881	0.312549
12.844	12.6675	0.394036	0.309502
12.8445	12.667	0.39482	0.30854
12.8449	12.6665	0.39335	0.304632
12.8454	12.666	0.394619	0.302316
12.8459	12.6656	0.395235	0.298414
12.8464	12.6651	0.394688	0.297864
12.8468	12.6646	0.393943	0.296804
12.8473	12.6641	0.39302	0.292467
12.8478	12.6637	0.393497	0.289936
12.8482	12.6632	0.394899	0.288267
12.8487	12.6627	0.395745	0.287646
12.8492	12.6623	0.395357	0.285252
12.8497	12.6618	0.393341	0.282512
12.8501	12.6613	0.394753	0.281728
12.8506	12.6609	0.394499	0.278371
12.8511	12.6604	0.3916	0.276648
12.8516	12.6599	0.393722	0.275747
12.852	12.6594	0.391247	0.274784
12.8525	12.659	0.389709	0.271724
12.853	12.6585	0.393301	0.270388
12.8534	12.6581	0.392878	0.26976
12.8539	12.6576	0.393121	0.271394
12.8544	12.6571	0.391721	0.269661
12.8549	12.6566	0.39202	0.268856
12.8553	12.6561	0.393482	0.268974
12.8558	12.6557	0.392118	0.270965
12.8563	12.6552	0.392985	0.273671
12.8567	12.6547	0.39193	0.274166
12.8572	12.6542	0.39128	0.274363
12.8577	12.6537	0.393059	0.275763
12.8582	12.6533	0.391579	0.278287
12.8586	12.6528	0.393165	0.281055
12.8591	12.6523	0.391053	0.283653
12.8596	12.6519	0.392087	0.283672
12.8601	12.6514	0.391978	0.28605
12.8605	12.6509	0.39318	0.290585
12.861	12.6505	0.393201	0.294321
12.8615	12.65	0.392536	0.295247
12.8619	12.6495	0.389941	0.295828
12.8624	12.649	0.392814	0.298083
12.8629	12.6486	0.39072	0.301841
12.8634	12.6481	0.390183	0.303935
12.8638	12.6476	0.389228	0.304869
12.8643	12.6471	0.389588	0.305658
12.8648	12.6467	0.389206	0.306202
12.8652	12.6462	0.388182	0.309222
12.8657	12.6457	0.38622	0.311644
12.8662	12.6452	0.387136	0.311012
12.8667	12.6447	0.38509	0.308903
12.8671	12.6443	0.388334	0.312157
12.8676	12.6438	0.389553	0.313412
12.8681	12.6433	0.387717	0.315798
12.8686	12.6429	0.38836	0.317798
12.869	12.6424	0.388649	0.31655
12.8695	12.642	0.390368	0.315715
12.87	12.6415	0.389993	0.318083
12.8704	12.641	0.390955	0.319869
12.8709	12.6405	0.388252	0.317253
12.8714	12.6401	0.388227	0.31571
12.8719	12.6396	0.390139	0.315448
12.8723	12.6391	0.389052	0.316524
12.8728	12.6387	0.388975	0.317182
12.8733	12.6382	0.388552	0.316626
12.8737	12.6377	0.388127	0.313885
12.8742	12.6373	0.389566	0.31291
12.8747	12.6368	0.390236	0.313505
12.8752	12.6363	0.387469	0.314013
12.8756	12.6358	0.387322	0.310972
12.8761	12.6354	0.386517	0.31038
12.8766	12.6349	0.389637	0.309565
12.8771	12.6344	0.386862	0.310553
12.8775	12.6339	0.387595	0.310017
12.878	12.6335	0.388013	0.308072
12.8785	12.633	0.387224	0.306478
12.8789	12.6325	0.387853	0.30759
12.8794	12.6321	0.387333	0.308909
12.8799	12.6316	0.386491	0.309446
12.8804	12.6311	0.386662	0.308712
12.8808	12.6306	0.386335	0.308667
12.8813	12.6302	0.386958	0.307635
12.8818	12.6297	0.387406	0.309451
12.8822	12.6292	0.386644	0.308495
12.8827	12.6288	0.386188	0.308354
12.8832	12.6283	0.387109	0.307373
12.8837	12.6278	0.386635	0.308232
12.8841	12.6273	0.387249	0.308902
12.8846	12.6269	0.384245	0.309815
12.8851	12.6264	0.385132	0.307476
12.8856	12.6259	0.38456	0.305752
12.886	12.6254	0.386049	0.306731
12.8865	12.6249	0.385552	0.305427
12.887	12.6245	0.384325	0.305718
12.8874	12.624	0.384071	0.304875
12.8879	12.6235	0.383727	0.302729
12.8884	12.623	0.386296	0.301837
12.8889	12.6226	0.384372	0.302301
12.8893	12.6221	0.384363	0.303668
12.8898	12.6217	0.384849	0.300637
12.8903	12.6212	0.384554	0.299363
12.8907	12.6207	0.389193	0.301857
12.8912	12.6202	0.388231	0.302316
12.8917	12.6197	0.383798	0.29925
12.8922	12.6193	0.385096	0.29837
12.8926	12.6188	0.384626	0.296731
12.8931	12.6183	0.38425	0.297889
12.8936	12.6179	0.382879	0.299007
12.8941	12.6174	0.382802	0.299077
12.8945	12.6169	0.383401	0.29795
12.895	12.6164	0.382823	0.296533
12.8955	12.616	0.384429	0.298446
12.8959	12.6155	0.383513	0.298258
12.8964	12.615	0.383103	0.297432
12.8969	12.6145	0.383481	0.29641
12.8974	12.6141	0.383247	0.295171
12.8978	12.6136	0.383196	0.295314
12.8983	12.6131	0.382466	0.296943
12.8988	12.6127	0.381928	0.295971
