# 1304     AichiSR QXAFS
# Start     : 8.9544
# End       : 9.0544
# Dir       : Backward
# Points    : 300
# ScanTime  : 1.01549
# Date      : 13.04.23 22:31
# Ring Cur. : 25.7[mA]
12.7557	12.6118	0.302774	0.231184
12.7562	12.6123	0.302381	0.230767
12.7566	12.6127	0.301119	0.232855
12.7571	12.6132	0.302357	0.232979
12.7576	12.6137	0.303585	0.233264
12.7581	12.6141	0.303294	0.234346
12.7585	12.6146	0.302084	0.236374
12.759	12.6151	0.303768	0.238091
12.7595	12.6156	0.304072	0.23655
12.7599	12.6161	0.305613	0.237264
12.7604	12.6165	0.305664	0.23645
12.7609	12.617	0.304089	0.238432
12.7614	12.6175	0.304463	0.237312
12.7618	12.618	0.306361	0.238563
12.7623	12.6184	0.304887	0.235958
12.7628	12.6189	0.306518	0.237847
12.7632	12.6194	0.307754	0.239734
12.7637	12.6198	0.305793	0.238788
12.7642	12.6203	0.305645	0.238738
12.7647	12.6208	0.308398	0.238382
12.7651	12.6213	0.308661	0.239579
12.7656	12.6217	0.305573	0.239763
12.7661	12.6222	0.305542	0.24102
12.7666	12.6227	0.308303	0.241522
12.767	12.6231	0.307962	0.240611
12.7675	12.6236	0.306867	0.241624
12.768	12.6241	0.310201	0.243696
12.7684	12.6246	0.307765	0.244745
12.7689	12.625	0.306783	0.244227
12.7694	12.6255	0.308804	0.245307
12.7699	12.626	0.309141	0.245027
12.7703	12.6265	0.307883	0.245889
12.7708	12.627	0.306502	0.247118
12.7713	12.6274	0.307978	0.24687
12.7717	12.6279	0.307951	0.247341
12.7722	12.6284	0.30873	0.246985
12.7727	12.6288	0.310083	0.250133
12.7732	12.6293	0.307521	0.24856
12.7736	12.6298	0.30983	0.248018
12.7741	12.6302	0.310847	0.247521
12.7746	12.6307	0.308743	0.249058
12.7751	12.6312	0.308159	0.246988
12.7755	12.6317	0.310091	0.249203
12.776	12.6321	0.30842	0.246189
12.7765	12.6326	0.310737	0.246543
12.7769	12.6331	0.310441	0.247954
12.7774	12.6335	0.311882	0.249304
12.7779	12.634	0.309525	0.248649
12.7784	12.6345	0.311272	0.248198
12.7788	12.6349	0.313955	0.249779
12.7793	12.6354	0.313262	0.24915
12.7798	12.6359	0.31257	0.251865
12.7802	12.6364	0.313048	0.252712
12.7807	12.6369	0.311627	0.250683
12.7812	12.6373	0.312357	0.250749
12.7817	12.6378	0.314703	0.254775
12.7821	12.6383	0.311489	0.254434
12.7826	12.6387	0.30994	0.254313
12.7831	12.6392	0.314386	0.253747
12.7836	12.6397	0.314305	0.257173
12.784	12.6401	0.312984	0.255739
12.7845	12.6406	0.3128	0.25667
12.785	12.6411	0.315375	0.258353
12.7854	12.6416	0.313193	0.25616
12.7859	12.642	0.313487	0.256843
12.7864	12.6425	0.315127	0.256517
12.7869	12.6429	0.314247	0.257966
12.7873	12.6434	0.311932	0.254685
12.7878	12.6439	0.311799	0.253416
12.7883	12.6443	0.314138	0.253204
12.7887	12.6448	0.313751	0.253764
12.7892	12.6453	0.313694	0.253046
12.7897	12.6458	0.311705	0.251283
12.7902	12.6463	0.314123	0.251414
12.7906	12.6467	0.315025	0.24946
12.7911	12.6472	0.313829	0.248912
12.7916	12.6477	0.315015	0.249883
12.7921	12.6482	0.315268	0.2485
12.7925	12.6487	0.315215	0.245336
12.793	12.6491	0.317535	0.243374
12.7935	12.6496	0.316694	0.243393
12.7939	12.6501	0.315217	0.242483
12.7944	12.6505	0.316839	0.240246
12.7949	12.651	0.318497	0.238275
12.7954	12.6515	0.319202	0.235833
12.7958	12.652	0.318214	0.235638
12.7963	12.6524	0.320899	0.234594
12.7968	12.6529	0.318132	0.231552
12.7972	12.6534	0.318054	0.228552
12.7977	12.6538	0.321644	0.228543
12.7982	12.6543	0.319965	0.226546
12.7987	12.6548	0.318995	0.226142
12.7991	12.6553	0.318358	0.224295
12.7996	12.6557	0.31961	0.222599
12.8001	12.6562	0.319727	0.220455
12.8006	12.6567	0.318763	0.220096
12.801	12.6572	0.31963	0.221665
12.8015	12.6577	0.319186	0.220929
12.802	12.6581	0.319351	0.219655
12.8024	12.6586	0.320593	0.219289
12.8029	12.6591	0.320286	0.221215
12.8034	12.6595	0.319806	0.223211
12.8039	12.66	0.320465	0.224144
12.8043	12.6605	0.320968	0.224528
12.8048	12.6609	0.322659	0.225616
12.8053	12.6614	0.321939	0.228685
12.8057	12.6619	0.322401	0.231746
12.8062	12.6623	0.320221	0.230524
12.8067	12.6628	0.320345	0.231306
12.8072	12.6633	0.322369	0.2345
12.8076	12.6637	0.322588	0.235548
12.8081	12.6642	0.32121	0.239074
12.8086	12.6647	0.321324	0.239323
12.8091	12.6652	0.323367	0.241849
12.8095	12.6656	0.322766	0.242308
12.81	12.6661	0.323987	0.245607
12.8105	12.6666	0.322659	0.250015
12.8109	12.6671	0.3225	0.25058
12.8114	12.6675	0.321267	0.251176
12.8119	12.668	0.324354	0.253976
12.8124	12.6685	0.323304	0.256332
12.8128	12.6689	0.320731	0.257091
12.8133	12.6694	0.321467	0.260577
12.8138	12.6699	0.322436	0.259952
12.8142	12.6703	0.32466	0.263043
12.8147	12.6708	0.32275	0.265735
12.8152	12.6713	0.324242	0.269611
12.8157	12.6718	0.323816	0.269836
12.8161	12.6722	0.322843	0.268592
12.8166	12.6727	0.325581	0.274199
12.8171	12.6732	0.323107	0.273175
12.8176	12.6736	0.32291	0.274744
12.818	12.6741	0.324451	0.27745
12.8185	12.6746	0.325045	0.276885
12.819	12.6751	0.32439	0.275441
12.8194	12.6755	0.322523	0.277332
12.8199	12.676	0.323025	0.279181
12.8204	12.6765	0.323636	0.278817
12.8209	12.677	0.321787	0.276059
12.8213	12.6775	0.32394	0.278754
12.8218	12.6779	0.323505	0.279558
12.8223	12.6784	0.321297	0.280205
12.8227	12.6789	0.324225	0.280122
12.8232	12.6793	0.326051	0.279861
12.8237	12.6798	0.32705	0.276984
12.8242	12.6803	0.324438	0.275545
12.8246	12.6808	0.324961	0.275096
12.8251	12.6812	0.325206	0.272071
12.8256	12.6817	0.322493	0.267359
12.8261	12.6822	0.325528	0.264911
12.8265	12.6826	0.325188	0.264258
12.827	12.6831	0.321406	0.260712
12.8275	12.6836	0.322676	0.258365
12.8279	12.684	0.32286	0.256031
12.8284	12.6845	0.32506	0.253741
12.8289	12.685	0.324348	0.252066
12.8294	12.6855	0.324929	0.249752
12.8298	12.686	0.324633	0.24649
12.8303	12.6864	0.323396	0.240462
12.8308	12.6869	0.326689	0.238855
12.8312	12.6874	0.325917	0.235577
12.8317	12.6879	0.323602	0.233139
12.8322	12.6884	0.326352	0.229661
12.8327	12.6888	0.324617	0.224335
12.8331	12.6893	0.326729	0.224412
12.8336	12.6897	0.326539	0.225112
12.8341	12.6902	0.326352	0.226008
12.8346	12.6907	0.324577	0.225729
12.835	12.6912	0.323624	0.226919
12.8355	12.6916	0.327535	0.231914
12.836	12.6921	0.32526	0.235643
12.8364	12.6926	0.324407	0.240872
12.8369	12.693	0.325454	0.244064
12.8374	12.6935	0.326473	0.247893
12.8379	12.6939	0.325805	0.253014
12.8383	12.6944	0.326981	0.260363
12.8388	12.6949	0.32607	0.26248
12.8393	12.6954	0.32368	0.260973
12.8397	12.6959	0.323861	0.26267
12.8402	12.6963	0.325469	0.264267
12.8407	12.6968	0.327221	0.265709
12.8412	12.6973	0.323805	0.262746
12.8416	12.6978	0.324375	0.26123
12.8421	12.6982	0.325916	0.258377
12.8426	12.6987	0.325121	0.256599
12.8431	12.6991	0.326296	0.254426
12.8435	12.6996	0.325849	0.251842
12.844	12.7001	0.323844	0.245116
12.8445	12.7005	0.324635	0.240502
12.8449	12.701	0.326282	0.239253
12.8454	12.7015	0.32598	0.236376
12.8459	12.702	0.322045	0.23227
12.8464	12.7024	0.32571	0.229453
12.8468	12.7029	0.32455	0.227874
12.8473	12.7034	0.323983	0.227163
12.8478	12.7038	0.325398	0.231995
12.8482	12.7043	0.325859	0.235709
12.8487	12.7048	0.325812	0.238773
12.8492	12.7053	0.324303	0.242522
12.8497	12.7058	0.328988	0.253103
12.8501	12.7063	0.327577	0.262505
12.8506	12.7067	0.324471	0.271452
12.8511	12.7072	0.325711	0.282767
12.8516	12.7077	0.328233	0.294213
12.852	12.7082	0.328287	0.306558
12.8525	12.7086	0.328214	0.322199
12.853	12.7091	0.327158	0.335834
12.8534	12.7096	0.326868	0.345978
12.8539	12.71	0.327517	0.359639
12.8544	12.7105	0.328763	0.377554
12.8549	12.711	0.326911	0.389528
12.8553	12.7115	0.325901	0.398447
12.8558	12.7119	0.325954	0.411411
12.8563	12.7124	0.329404	0.423617
12.8567	12.7129	0.326748	0.433598
12.8572	12.7133	0.326992	0.442625
12.8577	12.7138	0.328016	0.453134
12.8582	12.7143	0.326939	0.4583
12.8586	12.7147	0.328332	0.466271
12.8591	12.7152	0.327245	0.475362
12.8596	12.7157	0.327298	0.486643
12.8601	12.7162	0.32517	0.494799
12.8605	12.7167	0.327181	0.501711
12.861	12.7171	0.327335	0.5095
12.8615	12.7176	0.325993	0.516455
12.8619	12.7181	0.327075	0.520529
12.8624	12.7186	0.325659	0.523068
12.8629	12.719	0.324312	0.51522
12.8634	12.7195	0.325858	0.512194
12.8638	12.7199	0.327855	0.511277
12.8643	12.7204	0.326278	0.504901
12.8648	12.7209	0.323979	0.504358
12.8652	12.7214	0.32558	0.506625
12.8657	12.7218	0.326039	0.515304
12.8662	12.7223	0.323844	0.529216
12.8667	12.7228	0.326329	0.556202
12.8671	12.7232	0.322214	0.591469
12.8676	12.7237	0.321957	0.626896
12.8681	12.7241	0.322566	0.679204
12.8686	12.7246	0.322869	0.740028
12.869	12.7251	0.322585	0.786358
12.8695	12.7256	0.318398	0.820717
12.87	12.7261	0.320851	0.855144
12.8704	12.7265	0.324131	0.885315
12.8709	12.727	0.324257	0.903345
12.8714	12.7275	0.325537	0.921058
12.8719	12.728	0.324907	0.936041
12.8723	12.7284	0.324688	0.935001
12.8728	12.7289	0.324722	0.940626
12.8733	12.7294	0.325968	0.951935
12.8737	12.7298	0.326369	0.954432
12.8742	12.7303	0.323142	0.956686
12.8747	12.7308	0.323758	0.957648
12.8752	12.7313	0.326823	0.963906
12.8756	12.7317	0.324605	0.961881
12.8761	12.7322	0.323288	0.964654
12.8766	12.7327	0.325835	0.973722
12.8771	12.7331	0.323693	0.968151
12.8775	12.7336	0.324414	0.972455
12.878	12.7341	0.326814	0.978318
12.8785	12.7346	0.326225	0.979451
12.8789	12.735	0.324994	0.976953
12.8794	12.7355	0.324519	0.978651
12.8799	12.736	0.328196	0.983788
12.8804	12.7365	0.326039	0.979548
12.8808	12.737	0.325063	0.981449
12.8813	12.7375	0.325733	0.98435
12.8818	12.7379	0.324874	0.98065
12.8822	12.7384	0.326232	0.982895
12.8827	12.7389	0.325788	0.987138
12.8832	12.7393	0.325582	0.988094
12.8837	12.7398	0.325597	0.987654
12.8841	12.7403	0.325358	0.987166
12.8846	12.7407	0.328782	0.987149
12.8851	12.7412	0.327075	0.991133
12.8856	12.7417	0.327021	0.99274
12.886	12.7422	0.327649	0.995705
12.8865	12.7426	0.323778	0.987044
12.887	12.7431	0.325834	0.988493
12.8874	12.7436	0.328238	0.996993
12.8879	12.744	0.326482	0.993496
12.8884	12.7445	0.324176	0.990144
12.8889	12.745	0.327258	0.991681
12.8893	12.7455	0.329473	0.995371
12.8898	12.7459	0.327607	0.992337
12.8903	12.7464	0.326924	1.00079
12.8907	12.7469	0.327901	0.999129
12.8912	12.7474	0.325537	0.994039
12.8917	12.7478	0.329633	0.999361
12.8922	12.7483	0.333171	1.01379
12.8926	12.7488	0.328522	1.0025
12.8931	12.7492	0.326806	0.998552
12.8936	12.7497	0.328206	0.995489
12.8941	12.7502	0.327541	0.996433
12.8945	12.7506	0.327956	0.999058
12.895	12.7511	0.327484	1.00168
12.8955	12.7516	0.328104	1.00229
12.8959	12.7521	0.32662	0.997343
12.8964	12.7525	0.328519	1.0006
12.8969	12.753	0.329684	1.00459
12.8974	12.7534	0.327192	1.00149
12.8978	12.7539	0.327373	0.998581
12.8983	12.7544	0.327924	1.00182
12.8988	12.7549	0.330986	1.00484
