# 1304     AichiSR QXAFS
# Start     : 8.9544
# End       : 9.0544
# Dir       : Forward
# Points    : 300
# ScanTime  : 1.01549
# Date      : 13.04.23 22:29
# Ring Cur. : 25.6[mA]
12.7557	12.7558	0.408454	1.23509
12.7562	12.7553	0.406681	1.23835
12.7566	12.7548	0.40515	1.23742
12.7571	12.7543	0.407088	1.23767
12.7576	12.7539	0.404848	1.2315
12.7581	12.7534	0.405452	1.23278
12.7585	12.7529	0.405245	1.23503
12.759	12.7525	0.403935	1.23689
12.7595	12.752	0.405154	1.23676
12.7599	12.7515	0.403724	1.22992
12.7604	12.7511	0.405205	1.23228
12.7609	12.7506	0.405554	1.23367
12.7614	12.7501	0.403969	1.23217
12.7618	12.7496	0.405839	1.23301
12.7623	12.7492	0.402052	1.22739
12.7628	12.7487	0.406175	1.2288
12.7632	12.7483	0.405846	1.23097
12.7637	12.7478	0.404071	1.2345
12.7642	12.7473	0.404403	1.22978
12.7647	12.7468	0.404636	1.22663
12.7651	12.7464	0.405343	1.22697
12.7656	12.7459	0.403545	1.22803
12.7661	12.7454	0.403101	1.23029
12.7666	12.7449	0.402826	1.22705
12.767	12.7445	0.402986	1.22527
12.7675	12.744	0.403019	1.22165
12.768	12.7435	0.402575	1.22462
12.7684	12.743	0.404371	1.22456
12.7689	12.7426	0.403677	1.22109
12.7694	12.7421	0.404261	1.22263
12.7699	12.7417	0.404648	1.22374
12.7703	12.7412	0.404957	1.22248
12.7708	12.7407	0.401942	1.2234
12.7713	12.7402	0.403318	1.22188
12.7717	12.7397	0.401553	1.21798
12.7722	12.7393	0.403306	1.21796
12.7727	12.7388	0.403016	1.21853
12.7732	12.7384	0.402004	1.21852
12.7736	12.7379	0.402703	1.21227
12.7741	12.7374	0.401924	1.21623
12.7746	12.7369	0.402292	1.21246
12.7751	12.7364	0.402426	1.21134
12.7755	12.736	0.401115	1.2165
12.776	12.7355	0.40141	1.21114
12.7765	12.735	0.400448	1.20383
12.7769	12.7345	0.402208	1.20783
12.7774	12.734	0.401567	1.20523
12.7779	12.7336	0.401009	1.20265
12.7784	12.7331	0.402416	1.20004
12.7788	12.7326	0.401896	1.19782
12.7793	12.7322	0.402094	1.19868
12.7798	12.7317	0.399969	1.19151
12.7802	12.7312	0.401013	1.1924
12.7807	12.7307	0.400943	1.18666
12.7812	12.7303	0.401582	1.18171
12.7817	12.7298	0.40046	1.17657
12.7821	12.7293	0.400055	1.17519
12.7826	12.7289	0.400413	1.16808
12.7831	12.7284	0.399251	1.16226
12.7836	12.7279	0.400485	1.1539
12.784	12.7275	0.401627	1.14536
12.7845	12.727	0.399076	1.13405
12.785	12.7265	0.396553	1.1139
12.7854	12.726	0.397326	1.09334
12.7859	12.7256	0.395944	1.06158
12.7864	12.7251	0.394501	1.02261
12.7869	12.7246	0.393945	0.978034
12.7873	12.7241	0.393684	0.920401
12.7878	12.7236	0.393393	0.852681
12.7883	12.7232	0.396577	0.794771
12.7887	12.7227	0.399244	0.740257
12.7892	12.7223	0.398123	0.692253
12.7897	12.7218	0.396706	0.656308
12.7902	12.7213	0.399041	0.637596
12.7906	12.7208	0.399777	0.622922
12.7911	12.7204	0.400657	0.616236
12.7916	12.7199	0.400242	0.619246
12.7921	12.7194	0.397753	0.620528
12.7925	12.719	0.399091	0.623895
12.793	12.7185	0.397736	0.628957
12.7935	12.7181	0.399028	0.631921
12.7939	12.7176	0.395885	0.629172
12.7944	12.7171	0.397343	0.629759
12.7949	12.7166	0.39579	0.622569
12.7954	12.7162	0.398064	0.611301
12.7958	12.7157	0.39847	0.60128
12.7963	12.7152	0.398608	0.592222
12.7968	12.7147	0.397217	0.580248
12.7972	12.7142	0.396021	0.568013
12.7977	12.7138	0.398426	0.558295
12.7982	12.7133	0.398402	0.549515
12.7987	12.7128	0.397811	0.538482
12.7991	12.7124	0.395408	0.528445
12.7996	12.7119	0.396413	0.51368
12.8001	12.7114	0.396766	0.500409
12.8006	12.7109	0.396546	0.488536
12.801	12.7105	0.396193	0.47462
12.8015	12.71	0.395692	0.459587
12.802	12.7095	0.395304	0.441683
12.8024	12.7091	0.398303	0.42407
12.8029	12.7086	0.396552	0.408959
12.8034	12.7081	0.396667	0.392105
12.8039	12.7077	0.396748	0.376099
12.8043	12.7072	0.39641	0.3592
12.8048	12.7067	0.397115	0.345006
12.8053	12.7062	0.398135	0.333055
12.8057	12.7057	0.397598	0.321536
12.8062	12.7052	0.395952	0.310348
12.8067	12.7048	0.394771	0.298693
12.8072	12.7043	0.394484	0.289907
12.8076	12.7038	0.397202	0.284648
12.8081	12.7033	0.396448	0.281542
12.8086	12.7029	0.39538	0.277707
12.8091	12.7024	0.394903	0.277401
12.8095	12.7019	0.394497	0.277811
12.81	12.7015	0.395107	0.279927
12.8105	12.701	0.396421	0.284835
12.8109	12.7005	0.394557	0.28843
12.8114	12.7	0.393345	0.2916
12.8119	12.6996	0.396013	0.294928
12.8124	12.6991	0.393962	0.29984
12.8128	12.6987	0.395018	0.305757
12.8133	12.6982	0.392781	0.308523
12.8138	12.6977	0.393133	0.312547
12.8142	12.6972	0.392634	0.313314
12.8147	12.6968	0.39535	0.316913
12.8152	12.6963	0.394439	0.319315
12.8157	12.6958	0.393324	0.320647
12.8161	12.6953	0.392233	0.318566
12.8166	12.6949	0.392827	0.317418
12.8171	12.6944	0.393514	0.315847
12.8176	12.6939	0.393076	0.312773
12.818	12.6934	0.391044	0.308331
12.8185	12.693	0.392285	0.302761
12.819	12.6925	0.390271	0.295548
12.8194	12.6921	0.393948	0.289791
12.8199	12.6916	0.393449	0.285651
12.8204	12.6911	0.390995	0.280285
12.8209	12.6906	0.391824	0.274721
12.8213	12.6902	0.390697	0.271239
12.8218	12.6897	0.392053	0.269762
12.8223	12.6892	0.392007	0.27062
12.8227	12.6888	0.39037	0.271559
12.8232	12.6883	0.389529	0.270429
12.8237	12.6878	0.391604	0.27294
12.8242	12.6874	0.390604	0.275669
12.8246	12.6869	0.390903	0.282652
12.8251	12.6864	0.389991	0.286793
12.8256	12.6859	0.389391	0.288734
12.8261	12.6855	0.39124	0.292785
12.8265	12.685	0.394751	0.299759
12.827	12.6845	0.391158	0.302568
12.8275	12.684	0.387541	0.305372
12.8279	12.6835	0.388795	0.305529
12.8284	12.6831	0.389256	0.307878
12.8289	12.6826	0.390415	0.3116
12.8294	12.6821	0.390639	0.317576
12.8298	12.6817	0.389941	0.318841
12.8303	12.6812	0.390636	0.321491
12.8308	12.6807	0.391438	0.323959
12.8312	12.6802	0.391852	0.32673
12.8317	12.6798	0.39057	0.330901
12.8322	12.6793	0.390968	0.333868
12.8327	12.6788	0.390713	0.333302
12.8331	12.6784	0.390069	0.3344
12.8336	12.6779	0.391663	0.337528
12.8341	12.6774	0.393453	0.340311
12.8346	12.6769	0.38926	0.338362
12.835	12.6765	0.389582	0.335414
12.8355	12.676	0.390764	0.334696
12.836	12.6755	0.392361	0.336369
12.8364	12.675	0.392457	0.336101
12.8369	12.6745	0.389818	0.335778
12.8374	12.6741	0.390311	0.332859
12.8379	12.6736	0.391776	0.331968
12.8383	12.6731	0.39126	0.330901
12.8388	12.6727	0.391215	0.331746
12.8393	12.6722	0.39143	0.330775
12.8397	12.6717	0.392523	0.328007
12.8402	12.6713	0.391682	0.324708
12.8407	12.6708	0.392362	0.323951
12.8412	12.6703	0.392318	0.323548
12.8416	12.6698	0.391152	0.321318
12.8421	12.6694	0.391409	0.318154
12.8426	12.6689	0.393431	0.315238
12.8431	12.6685	0.392795	0.313928
12.8435	12.668	0.393816	0.312283
12.844	12.6675	0.392103	0.31088
12.8445	12.667	0.392607	0.305014
12.8449	12.6666	0.392666	0.304042
12.8454	12.6661	0.394327	0.30202
12.8459	12.6656	0.394955	0.299212
12.8464	12.6651	0.390933	0.296881
12.8468	12.6647	0.393138	0.294469
12.8473	12.6642	0.393727	0.292564
12.8478	12.6637	0.394409	0.290159
12.8482	12.6632	0.392943	0.290843
12.8487	12.6628	0.39134	0.28611
12.8492	12.6623	0.392007	0.283437
12.8497	12.6619	0.39264	0.280908
12.8501	12.6614	0.393634	0.280815
12.8506	12.6609	0.394209	0.279717
12.8511	12.6604	0.391395	0.277363
12.8516	12.66	0.39193	0.274573
12.852	12.6595	0.393872	0.273598
12.8525	12.659	0.393602	0.271262
12.853	12.6586	0.393371	0.272428
12.8534	12.6581	0.393698	0.271035
12.8539	12.6576	0.392314	0.267478
12.8544	12.6571	0.392682	0.269228
12.8549	12.6567	0.393508	0.269777
12.8553	12.6562	0.392445	0.272373
12.8558	12.6557	0.391519	0.272541
12.8563	12.6552	0.392383	0.272189
12.8567	12.6548	0.394004	0.273585
12.8572	12.6543	0.394502	0.27505
12.8577	12.6538	0.395376	0.280674
12.8582	12.6533	0.394385	0.280185
12.8586	12.6529	0.393909	0.281314
12.8591	12.6524	0.394696	0.283619
12.8596	12.6519	0.394777	0.287218
12.8601	12.6515	0.394971	0.289602
12.8605	12.651	0.393167	0.292881
12.861	12.6505	0.393525	0.293227
12.8615	12.65	0.393917	0.295122
12.8619	12.6496	0.394263	0.297787
12.8624	12.6491	0.395236	0.303251
12.8629	12.6486	0.393426	0.303741
12.8634	12.6482	0.390156	0.304491
12.8638	12.6477	0.393723	0.305602
12.8643	12.6472	0.39414	0.309106
12.8648	12.6467	0.390764	0.310541
12.8652	12.6462	0.38985	0.311014
12.8657	12.6458	0.390317	0.310686
12.8662	12.6453	0.391026	0.311649
12.8667	12.6448	0.390476	0.31423
12.8671	12.6443	0.391065	0.317963
12.8676	12.6439	0.391818	0.315816
12.8681	12.6434	0.389047	0.315648
12.8686	12.6429	0.393404	0.31877
12.869	12.6425	0.394176	0.319766
12.8695	12.642	0.391929	0.3206
12.87	12.6415	0.392201	0.322006
12.8704	12.6411	0.393648	0.318877
12.8709	12.6406	0.394555	0.319183
12.8714	12.6401	0.392655	0.320917
12.8719	12.6396	0.394559	0.321984
12.8723	12.6392	0.392999	0.321636
12.8728	12.6387	0.392054	0.318842
12.8733	12.6383	0.395144	0.318943
12.8737	12.6378	0.39428	0.318
12.8742	12.6373	0.393326	0.31845
12.8747	12.6368	0.391724	0.3167
12.8752	12.6364	0.392839	0.314967
12.8756	12.6359	0.393766	0.313113
12.8761	12.6354	0.392812	0.315057
12.8766	12.6349	0.39292	0.315976
12.8771	12.6345	0.393932	0.314154
12.8775	12.634	0.391325	0.311961
12.878	12.6335	0.392021	0.312621
12.8785	12.633	0.393809	0.311902
12.8789	12.6326	0.392664	0.312956
12.8794	12.6321	0.392354	0.313364
12.8799	12.6316	0.391502	0.311597
12.8804	12.6312	0.393756	0.312169
12.8808	12.6307	0.392345	0.31272
12.8813	12.6302	0.392565	0.314664
12.8818	12.6297	0.391288	0.314831
12.8822	12.6293	0.391158	0.312558
12.8827	12.6288	0.393302	0.313499
12.8832	12.6283	0.392633	0.314973
12.8837	12.6279	0.392592	0.315314
12.8841	12.6274	0.390204	0.314155
12.8846	12.6269	0.391462	0.312379
12.8851	12.6264	0.392964	0.311374
12.8856	12.626	0.393232	0.311771
12.886	12.6255	0.392193	0.314678
12.8865	12.625	0.391359	0.312003
12.887	12.6245	0.392548	0.308605
12.8874	12.624	0.392894	0.309047
12.8879	12.6236	0.393081	0.309919
12.8884	12.6231	0.390591	0.308735
12.8889	12.6226	0.390378	0.30738
12.8893	12.6222	0.391506	0.305829
12.8898	12.6217	0.393663	0.303725
12.8903	12.6212	0.39138	0.305326
12.8907	12.6207	0.391991	0.305127
12.8912	12.6203	0.391398	0.304677
12.8917	12.6198	0.390894	0.30156
12.8922	12.6193	0.391996	0.30287
12.8926	12.6189	0.391028	0.305131
12.8931	12.6184	0.391099	0.305195
12.8936	12.6179	0.389898	0.303554
12.8941	12.6174	0.391084	0.30158
12.8945	12.617	0.391522	0.30393
12.895	12.6165	0.390789	0.302924
12.8955	12.616	0.390556	0.304639
12.8959	12.6155	0.388541	0.302219
12.8964	12.6151	0.387766	0.300924
12.8969	12.6146	0.39159	0.300386
12.8974	12.6141	0.390263	0.302013
12.8978	12.6136	0.389771	0.30274
12.8983	12.6132	0.389794	0.300326
12.8988	12.6127	0.390087	0.298071
