# 1304     AichiSR QXAFS
# Start     : 8.9544
# End       : 9.0544
# Dir       : Forward
# Points    : 300
# ScanTime  : 1.01549
# Date      : 13.04.23 22:23
# Ring Cur. : 25.5[mA]
12.7557	12.7557	0.403889	1.23339
12.7562	12.7552	0.403113	1.2305
12.7566	12.7548	0.403351	1.23027
12.7571	12.7543	0.404	1.2284
12.7576	12.7538	0.403616	1.23211
12.7581	12.7533	0.402956	1.23026
12.7585	12.7529	0.403738	1.22649
12.759	12.7524	0.403812	1.22472
12.7595	12.752	0.40416	1.22773
12.7599	12.7515	0.404159	1.23155
12.7604	12.751	0.402241	1.22842
12.7609	12.7505	0.401264	1.22641
12.7614	12.7501	0.403	1.22271
12.7618	12.7496	0.403194	1.2268
12.7623	12.7491	0.404165	1.22983
12.7628	12.7487	0.403515	1.22791
12.7632	12.7482	0.40235	1.22504
12.7637	12.7478	0.403389	1.22585
12.7642	12.7473	0.403306	1.22564
12.7647	12.7468	0.402655	1.22438
12.7651	12.7463	0.401517	1.22394
12.7656	12.7458	0.40088	1.2224
12.7661	12.7454	0.404122	1.22284
12.7666	12.7449	0.402592	1.22491
12.767	12.7444	0.40293	1.2261
12.7675	12.7439	0.403011	1.2244
12.768	12.7435	0.401437	1.22217
12.7684	12.743	0.402742	1.21971
12.7689	12.7425	0.401799	1.22064
12.7694	12.7421	0.401687	1.22017
12.7699	12.7416	0.402536	1.22011
12.7703	12.7411	0.400706	1.21715
12.7708	12.7406	0.403727	1.21615
12.7713	12.7402	0.401982	1.21644
12.7717	12.7397	0.401129	1.21911
12.7722	12.7392	0.401224	1.21612
12.7727	12.7388	0.401614	1.21446
12.7732	12.7383	0.402891	1.2124
12.7736	12.7378	0.401844	1.21471
12.7741	12.7374	0.402554	1.21157
12.7746	12.7369	0.400019	1.21087
12.7751	12.7364	0.401712	1.20743
12.7755	12.7359	0.403098	1.20735
12.776	12.7354	0.401672	1.20835
12.7765	12.735	0.402263	1.20681
12.7769	12.7345	0.401779	1.20574
12.7774	12.734	0.400313	1.20149
12.7779	12.7335	0.401973	1.19989
12.7784	12.7331	0.400071	1.19984
12.7788	12.7326	0.400633	1.20045
12.7793	12.7321	0.401096	1.19674
12.7798	12.7317	0.399014	1.18997
12.7802	12.7312	0.40172	1.18765
12.7807	12.7307	0.400957	1.18722
12.7812	12.7302	0.399295	1.18447
12.7817	12.7297	0.400827	1.17786
12.7821	12.7293	0.40007	1.17196
12.7826	12.7288	0.39959	1.1677
12.7831	12.7284	0.399079	1.16438
12.7836	12.7279	0.399568	1.15624
12.784	12.7274	0.398677	1.14266
12.7845	12.7269	0.397781	1.12795
12.785	12.7265	0.398697	1.11409
12.7854	12.726	0.398107	1.09382
12.7859	12.7255	0.394767	1.06505
12.7864	12.725	0.392898	1.02532
12.7869	12.7245	0.392706	0.979614
12.7873	12.7241	0.394638	0.922666
12.7878	12.7236	0.396323	0.865941
12.7883	12.7231	0.39774	0.804001
12.7887	12.7227	0.399048	0.747874
12.7892	12.7222	0.398846	0.697511
12.7897	12.7218	0.399457	0.662241
12.7902	12.7213	0.400065	0.640105
12.7906	12.7208	0.398111	0.624369
12.7911	12.7203	0.397935	0.618419
12.7916	12.7199	0.398544	0.616169
12.7921	12.7194	0.399049	0.619105
12.7925	12.7189	0.399743	0.623859
12.793	12.7185	0.397631	0.630999
12.7935	12.718	0.39773	0.631964
12.7939	12.7175	0.398363	0.631807
12.7944	12.7171	0.399944	0.628985
12.7949	12.7166	0.400219	0.625689
12.7954	12.7161	0.397949	0.614426
12.7958	12.7156	0.397969	0.603798
12.7963	12.7151	0.398253	0.59265
12.7968	12.7147	0.39906	0.579893
12.7972	12.7142	0.399061	0.569457
12.7977	12.7137	0.397683	0.561814
12.7982	12.7132	0.399548	0.551952
12.7987	12.7128	0.398659	0.539603
12.7991	12.7123	0.397578	0.527109
12.7996	12.7119	0.39894	0.518725
12.8001	12.7114	0.395728	0.50583
12.8006	12.7109	0.398505	0.491249
12.801	12.7104	0.396686	0.475519
12.8015	12.7099	0.398052	0.458921
12.802	12.7095	0.398009	0.445171
12.8024	12.709	0.396103	0.429079
12.8029	12.7086	0.396514	0.410898
12.8034	12.7081	0.395861	0.39195
12.8039	12.7076	0.397672	0.377438
12.8043	12.7071	0.398787	0.361937
12.8048	12.7066	0.395856	0.348553
12.8053	12.7062	0.395831	0.335033
12.8057	12.7057	0.39784	0.32063
12.8062	12.7052	0.398166	0.309779
12.8067	12.7047	0.398475	0.302472
12.8072	12.7042	0.397223	0.295267
12.8076	12.7038	0.395208	0.287382
12.8081	12.7033	0.395668	0.28123
12.8086	12.7028	0.397959	0.279092
12.8091	12.7024	0.397282	0.279479
12.8095	12.7019	0.394955	0.278932
12.81	12.7014	0.396233	0.28098
12.8105	12.7009	0.396179	0.283258
12.8109	12.7005	0.39662	0.287622
12.8114	12.7	0.395116	0.293045
12.8119	12.6995	0.395192	0.296733
12.8124	12.6991	0.395735	0.300038
12.8128	12.6986	0.3931	0.304057
12.8133	12.6982	0.396273	0.30891
12.8138	12.6977	0.397406	0.31453
12.8142	12.6972	0.39463	0.316717
12.8147	12.6967	0.393887	0.316434
12.8152	12.6962	0.394845	0.317886
12.8157	12.6958	0.395199	0.320055
12.8161	12.6953	0.39576	0.320791
12.8166	12.6948	0.39387	0.318611
12.8171	12.6943	0.393629	0.315275
12.8176	12.6939	0.394078	0.311593
12.818	12.6934	0.394183	0.306896
12.8185	12.6929	0.393045	0.303425
12.819	12.6925	0.392185	0.296665
12.8194	12.692	0.39247	0.29153
12.8199	12.6915	0.395006	0.285176
12.8204	12.6911	0.394892	0.281946
12.8209	12.6906	0.393734	0.277447
12.8213	12.6901	0.392656	0.274072
12.8218	12.6897	0.393703	0.269443
12.8223	12.6892	0.39261	0.268837
12.8227	12.6887	0.394413	0.269698
12.8232	12.6883	0.393428	0.273359
12.8237	12.6878	0.391583	0.275206
12.8242	12.6873	0.390477	0.276164
12.8246	12.6868	0.392735	0.279746
12.8251	12.6864	0.391783	0.285781
12.8256	12.6859	0.390908	0.290354
12.8261	12.6854	0.389653	0.294019
12.8265	12.6849	0.389647	0.297312
12.827	12.6844	0.389395	0.299703
12.8275	12.684	0.3903	0.302663
12.8279	12.6835	0.390823	0.308463
12.8284	12.683	0.388414	0.309675
12.8289	12.6826	0.38856	0.311955
12.8294	12.6821	0.389418	0.313964
12.8298	12.6816	0.390412	0.318145
12.8303	12.6812	0.390269	0.322486
12.8308	12.6807	0.390641	0.325954
12.8312	12.6802	0.390851	0.326912
12.8317	12.6797	0.390101	0.328349
12.8322	12.6793	0.391801	0.331322
12.8327	12.6788	0.392688	0.335817
12.8331	12.6783	0.390803	0.33665
12.8336	12.6779	0.390356	0.335363
12.8341	12.6774	0.39228	0.336319
12.8346	12.6769	0.395644	0.339477
12.835	12.6764	0.392931	0.339338
12.8355	12.6759	0.389847	0.336639
12.836	12.6755	0.389817	0.335562
12.8364	12.675	0.390863	0.33333
12.8369	12.6745	0.389977	0.334345
12.8374	12.674	0.39169	0.33366
12.8379	12.6735	0.388704	0.333613
12.8383	12.6731	0.391551	0.329607
12.8388	12.6726	0.391493	0.330176
12.8393	12.6722	0.390531	0.327777
12.8397	12.6717	0.391364	0.32785
12.8402	12.6712	0.390686	0.32518
12.8407	12.6707	0.387743	0.323504
12.8412	12.6703	0.390278	0.319965
12.8416	12.6698	0.390616	0.318288
12.8421	12.6693	0.38941	0.318065
12.8426	12.6689	0.388403	0.315608
12.8431	12.6684	0.389916	0.309876
12.8435	12.6679	0.389145	0.307373
12.844	12.6675	0.390919	0.30694
12.8445	12.667	0.390971	0.306588
12.8449	12.6665	0.389889	0.300916
12.8454	12.666	0.389735	0.298828
12.8459	12.6656	0.391511	0.296579
12.8464	12.6651	0.391403	0.294652
12.8468	12.6646	0.392245	0.295437
12.8473	12.6641	0.38939	0.291516
12.8478	12.6637	0.389251	0.288059
12.8482	12.6632	0.389981	0.285471
12.8487	12.6627	0.391046	0.284495
12.8492	12.6623	0.389584	0.283703
12.8497	12.6618	0.390222	0.282519
12.8501	12.6613	0.388859	0.278736
12.8506	12.6609	0.392202	0.277722
12.8511	12.6604	0.391217	0.27628
12.8516	12.6599	0.391116	0.275469
12.852	12.6595	0.389533	0.273628
12.8525	12.659	0.390831	0.270909
12.853	12.6585	0.391812	0.269959
12.8534	12.6581	0.389852	0.268577
12.8539	12.6576	0.391795	0.270272
12.8544	12.6571	0.391129	0.268701
12.8549	12.6566	0.388851	0.26716
12.8553	12.6561	0.392764	0.268551
12.8558	12.6557	0.389707	0.269615
12.8563	12.6552	0.391942	0.271524
12.8567	12.6547	0.391322	0.274022
12.8572	12.6542	0.391215	0.27308
12.8577	12.6537	0.391395	0.274985
12.8582	12.6533	0.393724	0.277389
12.8586	12.6528	0.39248	0.282051
12.8591	12.6523	0.391066	0.283
12.8596	12.6519	0.39129	0.284773
12.8601	12.6514	0.392849	0.287048
12.8605	12.6509	0.392633	0.289646
12.861	12.6505	0.392039	0.293041
12.8615	12.65	0.392576	0.295599
12.8619	12.6495	0.392215	0.295694
12.8624	12.649	0.393133	0.29887
12.8629	12.6486	0.392732	0.301495
12.8634	12.6481	0.392123	0.303627
12.8638	12.6476	0.390645	0.307224
12.8643	12.6471	0.390536	0.30545
12.8648	12.6467	0.390894	0.307243
12.8652	12.6462	0.391327	0.309159
12.8657	12.6457	0.388506	0.312406
12.8662	12.6452	0.387215	0.312099
12.8667	12.6448	0.387234	0.311412
12.8671	12.6443	0.391396	0.313598
12.8676	12.6438	0.390912	0.31598
12.8681	12.6433	0.390815	0.317634
12.8686	12.6429	0.390439	0.317622
12.869	12.6424	0.390881	0.316986
12.8695	12.642	0.393479	0.318219
12.87	12.6415	0.393753	0.320236
12.8704	12.641	0.392064	0.321373
12.8709	12.6405	0.392095	0.320085
12.8714	12.6401	0.393063	0.318224
12.8719	12.6396	0.392154	0.318059
12.8723	12.6391	0.393676	0.319806
12.8728	12.6387	0.392823	0.318894
12.8733	12.6382	0.392532	0.318633
12.8737	12.6377	0.391458	0.316496
12.8742	12.6373	0.39361	0.316403
12.8747	12.6368	0.39351	0.317806
12.8752	12.6363	0.395248	0.317662
12.8756	12.6358	0.393844	0.316099
12.8761	12.6354	0.392326	0.312276
12.8766	12.6349	0.393577	0.312974
12.8771	12.6344	0.393037	0.314734
12.8775	12.6339	0.391758	0.313322
12.878	12.6335	0.391842	0.312502
12.8785	12.633	0.391369	0.310289
12.8789	12.6325	0.396128	0.311949
12.8794	12.6321	0.392572	0.313822
12.8799	12.6316	0.394144	0.314091
12.8804	12.6311	0.393084	0.312754
12.8808	12.6306	0.391529	0.312078
12.8813	12.6302	0.393485	0.312537
12.8818	12.6297	0.392831	0.31384
12.8822	12.6292	0.391751	0.31529
12.8827	12.6288	0.392314	0.314556
12.8832	12.6283	0.392063	0.313376
12.8837	12.6278	0.393342	0.312093
12.8841	12.6274	0.392675	0.313437
12.8846	12.6269	0.3921	0.314107
12.8851	12.6264	0.392774	0.313428
12.8856	12.6259	0.390052	0.311277
12.886	12.6254	0.393322	0.310911
12.8865	12.625	0.39281	0.312698
12.887	12.6245	0.39132	0.3118
12.8874	12.624	0.392317	0.309677
12.8879	12.6235	0.391066	0.307563
12.8884	12.6231	0.392716	0.306849
12.8889	12.6226	0.391213	0.307304
12.8893	12.6221	0.391609	0.306957
12.8898	12.6217	0.391072	0.307686
12.8903	12.6212	0.389434	0.304593
12.8907	12.6207	0.392619	0.305315
12.8912	12.6202	0.392891	0.304618
12.8917	12.6197	0.391234	0.306012
12.8922	12.6193	0.390518	0.30454
12.8926	12.6188	0.39081	0.302707
12.8931	12.6183	0.391632	0.304473
12.8936	12.6179	0.390125	0.303468
12.8941	12.6174	0.389952	0.304697
12.8945	12.6169	0.391546	0.30386
12.895	12.6164	0.390533	0.302069
12.8955	12.616	0.392037	0.303806
12.8959	12.6155	0.391188	0.30374
12.8964	12.615	0.390134	0.303851
12.8969	12.6145	0.390083	0.303531
12.8974	12.6141	0.3909	0.302201
12.8978	12.6136	0.391002	0.300477
12.8983	12.6131	0.391253	0.301208
12.8988	12.6127	0.390326	0.300901
