# 1304     AichiSR QXAFS
# Start     : 8.9544
# End       : 9.0544
# Dir       : Forward
# Points    : 300
# ScanTime  : 1.01549
# Date      : 13.04.23 22:30
# Ring Cur. : 25.7[mA]
12.7557	12.7558	0.404925	1.23149
12.7562	12.7553	0.4028	1.23276
12.7566	12.7548	0.402087	1.22812
12.7571	12.7543	0.402143	1.22768
12.7576	12.7539	0.403533	1.22836
12.7581	12.7534	0.403334	1.23057
12.7585	12.7529	0.40298	1.22913
12.759	12.7525	0.403893	1.22977
12.7595	12.752	0.40246	1.22746
12.7599	12.7516	0.404073	1.22971
12.7604	12.7511	0.403414	1.23277
12.7609	12.7506	0.403617	1.23227
12.7614	12.7501	0.402919	1.2254
12.7618	12.7497	0.403576	1.22943
12.7623	12.7492	0.404426	1.22779
12.7628	12.7487	0.402709	1.22916
12.7632	12.7483	0.402995	1.22921
12.7637	12.7478	0.403773	1.22773
12.7642	12.7473	0.403148	1.22134
12.7647	12.7469	0.4037	1.22641
12.7651	12.7464	0.404572	1.23104
12.7656	12.7459	0.402173	1.22788
12.7661	12.7454	0.403691	1.22714
12.7666	12.7449	0.403684	1.2264
12.767	12.7445	0.404185	1.22613
12.7675	12.744	0.404608	1.22609
12.768	12.7435	0.402805	1.22484
12.7684	12.7431	0.401639	1.22173
12.7689	12.7426	0.404737	1.22061
12.7694	12.7421	0.402923	1.22286
12.7699	12.7417	0.403739	1.22134
12.7703	12.7412	0.402211	1.22439
12.7708	12.7407	0.401771	1.2208
12.7713	12.7402	0.40442	1.22121
12.7717	12.7398	0.403694	1.2224
12.7722	12.7393	0.404548	1.22204
12.7727	12.7388	0.404076	1.22245
12.7732	12.7384	0.402953	1.21873
12.7736	12.7379	0.404353	1.21664
12.7741	12.7374	0.404979	1.21895
12.7746	12.7369	0.405427	1.21943
12.7751	12.7365	0.40174	1.21747
12.7755	12.736	0.401354	1.21313
12.776	12.7355	0.404112	1.21226
12.7765	12.735	0.402431	1.21265
12.7769	12.7345	0.402461	1.21294
12.7774	12.7341	0.403106	1.20933
12.7779	12.7336	0.403407	1.2058
12.7784	12.7331	0.401396	1.20312
12.7788	12.7326	0.402644	1.20198
12.7793	12.7322	0.403646	1.20368
12.7798	12.7317	0.401129	1.20202
12.7802	12.7312	0.400488	1.19349
12.7807	12.7308	0.403707	1.19286
12.7812	12.7303	0.402773	1.1908
12.7817	12.7298	0.402395	1.18586
12.7821	12.7293	0.401218	1.18368
12.7826	12.7289	0.400775	1.17063
12.7831	12.7284	0.401849	1.16743
12.7836	12.7279	0.401128	1.15986
12.784	12.7275	0.401544	1.15117
12.7845	12.727	0.40083	1.13604
12.785	12.7265	0.399277	1.11819
12.7854	12.726	0.400486	1.09885
12.7859	12.7256	0.396663	1.06734
12.7864	12.7251	0.396456	1.03205
12.7869	12.7246	0.39511	0.987469
12.7873	12.7241	0.394156	0.921557
12.7878	12.7237	0.397668	0.860344
12.7883	12.7232	0.397636	0.803873
12.7887	12.7227	0.399323	0.749199
12.7892	12.7223	0.401297	0.697886
12.7897	12.7218	0.399938	0.658409
12.7902	12.7213	0.400941	0.637978
12.7906	12.7209	0.401954	0.625898
12.7911	12.7204	0.400303	0.622066
12.7916	12.7199	0.401116	0.621222
12.7921	12.7195	0.399901	0.621069
12.7925	12.719	0.402079	0.627428
12.793	12.7185	0.399104	0.633555
12.7935	12.7181	0.401602	0.641077
12.7939	12.7176	0.398583	0.637984
12.7944	12.7171	0.399621	0.63141
12.7949	12.7166	0.401853	0.625182
12.7954	12.7162	0.399626	0.616984
12.7958	12.7157	0.399815	0.606698
12.7963	12.7152	0.400234	0.598088
12.7968	12.7147	0.397957	0.581765
12.7972	12.7142	0.400849	0.569307
12.7977	12.7138	0.400708	0.562057
12.7982	12.7133	0.400054	0.55504
12.7987	12.7128	0.399571	0.544042
12.7991	12.7124	0.398953	0.529336
12.7996	12.7119	0.401476	0.519226
12.8001	12.7114	0.400097	0.504491
12.8006	12.711	0.39942	0.495568
12.801	12.7105	0.398795	0.480051
12.8015	12.71	0.398862	0.458566
12.802	12.7095	0.400336	0.442254
12.8024	12.7091	0.399982	0.428267
12.8029	12.7086	0.39819	0.413282
12.8034	12.7081	0.398373	0.394463
12.8039	12.7077	0.39883	0.378273
12.8043	12.7072	0.399136	0.362293
12.8048	12.7067	0.398194	0.348421
12.8053	12.7062	0.399679	0.337395
12.8057	12.7057	0.398891	0.325421
12.8062	12.7053	0.399228	0.31007
12.8067	12.7048	0.401159	0.300097
12.8072	12.7043	0.398598	0.293304
12.8076	12.7038	0.399256	0.290131
12.8081	12.7033	0.398484	0.284558
12.8086	12.7029	0.396718	0.279177
12.8091	12.7024	0.399827	0.279352
12.8095	12.702	0.39639	0.280755
12.81	12.7015	0.396514	0.283163
12.8105	12.701	0.398832	0.286102
12.8109	12.7005	0.398017	0.287873
12.8114	12.7001	0.398855	0.292844
12.8119	12.6996	0.398258	0.298626
12.8124	12.6991	0.398178	0.303875
12.8128	12.6987	0.397505	0.307497
12.8133	12.6982	0.397919	0.312123
12.8138	12.6977	0.399721	0.314361
12.8142	12.6973	0.396116	0.317453
12.8147	12.6968	0.397305	0.321622
12.8152	12.6963	0.3978	0.32263
12.8157	12.6958	0.395553	0.321036
12.8161	12.6954	0.397677	0.319405
12.8166	12.6949	0.396717	0.321391
12.8171	12.6944	0.396877	0.319858
12.8176	12.6939	0.395545	0.315879
12.818	12.6935	0.395387	0.309549
12.8185	12.693	0.397733	0.304809
12.819	12.6925	0.398124	0.300767
12.8194	12.6921	0.397294	0.295716
12.8199	12.6916	0.395894	0.288856
12.8204	12.6911	0.396149	0.282036
12.8209	12.6907	0.395732	0.276549
12.8213	12.6902	0.396622	0.275548
12.8218	12.6897	0.394925	0.273432
12.8223	12.6893	0.396427	0.272924
12.8227	12.6888	0.396436	0.271671
12.8232	12.6883	0.395885	0.274432
12.8237	12.6879	0.396147	0.276884
12.8242	12.6874	0.394831	0.281695
12.8246	12.6869	0.394954	0.283882
12.8251	12.6864	0.393902	0.285924
12.8256	12.6859	0.394651	0.291732
12.8261	12.6855	0.394199	0.296861
12.8265	12.685	0.393525	0.301296
12.827	12.6845	0.392645	0.302839
12.8275	12.684	0.394127	0.30566
12.8279	12.6835	0.395166	0.310715
12.8284	12.6831	0.392902	0.314467
12.8289	12.6826	0.392791	0.317276
12.8294	12.6822	0.393061	0.320166
12.8298	12.6817	0.393661	0.320746
12.8303	12.6812	0.39388	0.324724
12.8308	12.6807	0.394972	0.32832
12.8312	12.6802	0.395491	0.332466
12.8317	12.6798	0.394765	0.334314
12.8322	12.6793	0.395415	0.335023
12.8327	12.6789	0.397259	0.337655
12.8331	12.6784	0.395763	0.340447
12.8336	12.6779	0.394643	0.342143
12.8341	12.6774	0.395964	0.341054
12.8346	12.677	0.395485	0.340481
12.835	12.6765	0.395984	0.340165
12.8355	12.676	0.395479	0.341437
12.836	12.6755	0.396074	0.341639
12.8364	12.675	0.394248	0.337813
12.8369	12.6746	0.394964	0.337407
12.8374	12.6741	0.39515	0.336204
12.8379	12.6736	0.393562	0.337146
12.8383	12.6731	0.39495	0.33542
12.8388	12.6727	0.394123	0.333832
12.8393	12.6722	0.39349	0.330741
12.8397	12.6717	0.394607	0.329419
12.8402	12.6713	0.395404	0.328912
12.8407	12.6708	0.393105	0.328501
12.8412	12.6703	0.393874	0.323023
12.8416	12.6699	0.393271	0.320421
12.8421	12.6694	0.393699	0.319628
12.8426	12.6689	0.39287	0.318008
12.8431	12.6685	0.392722	0.315726
12.8435	12.668	0.392515	0.311512
12.844	12.6675	0.393511	0.307829
12.8445	12.6671	0.393477	0.305818
12.8449	12.6666	0.394369	0.304876
12.8454	12.6661	0.392666	0.303245
12.8459	12.6656	0.393037	0.299145
12.8464	12.6651	0.392024	0.295656
12.8468	12.6647	0.394099	0.294755
12.8473	12.6642	0.392636	0.29193
12.8478	12.6637	0.391026	0.292354
12.8482	12.6633	0.392184	0.288655
12.8487	12.6628	0.393668	0.28415
12.8492	12.6623	0.392117	0.28247
12.8497	12.6619	0.392134	0.282018
12.8501	12.6614	0.390007	0.27998
12.8506	12.6609	0.391997	0.278034
12.8511	12.6604	0.390812	0.274788
12.8516	12.66	0.391824	0.273135
12.852	12.6595	0.392064	0.273865
12.8525	12.659	0.389293	0.272475
12.853	12.6586	0.389542	0.269957
12.8534	12.6581	0.388866	0.268352
12.8539	12.6576	0.389468	0.268115
12.8544	12.6572	0.390813	0.268515
12.8549	12.6567	0.390079	0.269401
12.8553	12.6562	0.390927	0.267424
12.8558	12.6557	0.388663	0.268658
12.8563	12.6552	0.390578	0.270563
12.8567	12.6548	0.390859	0.273125
12.8572	12.6543	0.387702	0.274476
12.8577	12.6538	0.3907	0.2746
12.8582	12.6533	0.390716	0.27524
12.8586	12.6529	0.389787	0.279148
12.8591	12.6524	0.391226	0.28268
12.8596	12.6519	0.38986	0.284047
12.8601	12.6515	0.388935	0.286177
12.8605	12.651	0.38936	0.286348
12.861	12.6505	0.390397	0.289555
12.8615	12.65	0.38967	0.293438
12.8619	12.6496	0.388937	0.295864
12.8624	12.6491	0.389736	0.296123
12.8629	12.6486	0.390352	0.298026
12.8634	12.6482	0.388237	0.299984
12.8638	12.6477	0.388129	0.303948
12.8643	12.6472	0.386421	0.305056
12.8648	12.6467	0.384434	0.304069
12.8652	12.6463	0.386347	0.304265
12.8657	12.6458	0.384438	0.30714
12.8662	12.6453	0.384495	0.308908
12.8667	12.6448	0.382284	0.309885
12.8671	12.6443	0.384235	0.309808
12.8676	12.6439	0.387577	0.312258
12.8681	12.6434	0.389915	0.316001
12.8686	12.6429	0.389249	0.317594
12.869	12.6425	0.386331	0.315992
12.8695	12.642	0.386418	0.314591
12.87	12.6415	0.388099	0.314948
12.8704	12.6411	0.387286	0.31488
12.8709	12.6406	0.387947	0.31749
12.8714	12.6401	0.386535	0.316168
12.8719	12.6396	0.385623	0.315302
12.8723	12.6392	0.38733	0.314597
12.8728	12.6387	0.387208	0.313518
12.8733	12.6383	0.386328	0.315098
12.8737	12.6378	0.386833	0.314387
12.8742	12.6373	0.385417	0.310768
12.8747	12.6368	0.385603	0.310644
12.8752	12.6364	0.386107	0.31061
12.8756	12.6359	0.385741	0.310912
12.8761	12.6354	0.385796	0.309931
12.8766	12.6349	0.38553	0.307631
12.8771	12.6345	0.387517	0.308427
12.8775	12.634	0.385894	0.307376
12.878	12.6335	0.387047	0.308178
12.8785	12.633	0.386358	0.307837
12.8789	12.6326	0.385203	0.307052
12.8794	12.6321	0.386708	0.305915
12.8799	12.6317	0.386704	0.307974
12.8804	12.6312	0.385864	0.310437
12.8808	12.6307	0.385583	0.308447
12.8813	12.6302	0.386037	0.30837
12.8818	12.6298	0.387533	0.309058
12.8822	12.6293	0.38513	0.309705
12.8827	12.6288	0.387194	0.311271
12.8832	12.6284	0.386287	0.310792
12.8837	12.6279	0.386463	0.308414
12.8841	12.6274	0.387963	0.309392
12.8846	12.6269	0.387569	0.309899
12.8851	12.6265	0.386285	0.310407
12.8856	12.626	0.385571	0.310521
12.886	12.6255	0.386245	0.308026
12.8865	12.625	0.387139	0.306569
12.887	12.6245	0.387607	0.307716
12.8874	12.6241	0.387554	0.306794
12.8879	12.6236	0.386792	0.305909
12.8884	12.6231	0.386445	0.303946
12.8889	12.6226	0.388711	0.304319
12.8893	12.6222	0.387876	0.3047
12.8898	12.6217	0.38714	0.302845
12.8903	12.6212	0.386904	0.302886
12.8907	12.6208	0.3879	0.301036
12.8912	12.6203	0.388898	0.300455
12.8917	12.6198	0.388179	0.301273
12.8922	12.6193	0.388071	0.302481
12.8926	12.6189	0.386416	0.302488
12.8931	12.6184	0.38614	0.299253
12.8936	12.6179	0.388735	0.300464
12.8941	12.6175	0.387775	0.302397
12.8945	12.617	0.386673	0.301745
12.895	12.6165	0.387006	0.301582
12.8955	12.616	0.387391	0.300915
12.8959	12.6156	0.389508	0.299856
12.8964	12.6151	0.386948	0.299348
12.8969	12.6146	0.387711	0.300691
12.8974	12.6141	0.388024	0.301164
12.8978	12.6137	0.386728	0.299383
12.8983	12.6132	0.386913	0.298673
12.8988	12.6127	0.388985	0.297869
