# 1304     AichiSR QXAFS
# Start     : 8.9544
# End       : 9.0544
# Dir       : Backward
# Points    : 300
# ScanTime  : 1.01549
# Date      : 13.04.23 22:28
# Ring Cur. : 25.5[mA]
12.7557	12.6118	0.29748	0.227825
12.7562	12.6123	0.29749	0.226237
12.7566	12.6127	0.299749	0.228631
12.7571	12.6132	0.299698	0.231115
12.7576	12.6136	0.297952	0.23212
12.7581	12.6141	0.299465	0.231557
12.7585	12.6146	0.301321	0.232402
12.759	12.6151	0.301649	0.232762
12.7595	12.6155	0.300598	0.233108
12.7599	12.616	0.299718	0.234063
12.7604	12.6165	0.300514	0.233715
12.7609	12.617	0.300375	0.23274
12.7614	12.6174	0.301424	0.233762
12.7618	12.6179	0.300555	0.233874
12.7623	12.6184	0.298765	0.233055
12.7628	12.6189	0.300841	0.234812
12.7632	12.6193	0.301567	0.234479
12.7637	12.6198	0.30248	0.234901
12.7642	12.6203	0.300467	0.234914
12.7647	12.6207	0.30233	0.237619
12.7651	12.6212	0.301886	0.236302
12.7656	12.6217	0.299529	0.233747
12.7661	12.6222	0.302887	0.235791
12.7666	12.6226	0.30148	0.237264
12.767	12.6231	0.302264	0.238745
12.7675	12.6236	0.300892	0.237261
12.768	12.624	0.302058	0.236813
12.7684	12.6245	0.303205	0.238743
12.7689	12.625	0.30088	0.23866
12.7694	12.6255	0.301727	0.240861
12.7699	12.626	0.30228	0.239906
12.7703	12.6264	0.302107	0.240299
12.7708	12.6269	0.30357	0.242442
12.7713	12.6274	0.303753	0.242949
12.7717	12.6279	0.301984	0.243595
12.7722	12.6283	0.302839	0.242208
12.7727	12.6288	0.303662	0.242337
12.7732	12.6293	0.303638	0.24288
12.7736	12.6297	0.302578	0.243713
12.7741	12.6302	0.303551	0.244091
12.7746	12.6307	0.30184	0.242858
12.7751	12.6312	0.302849	0.241947
12.7755	12.6316	0.305278	0.244244
12.776	12.6321	0.304081	0.243263
12.7765	12.6326	0.303175	0.243545
12.7769	12.633	0.304876	0.242293
12.7774	12.6335	0.305181	0.241776
12.7779	12.634	0.305587	0.242515
12.7784	12.6344	0.305452	0.243174
12.7788	12.6349	0.304163	0.246147
12.7793	12.6354	0.304134	0.244102
12.7798	12.6359	0.303871	0.243276
12.7802	12.6363	0.306654	0.245273
12.7807	12.6368	0.303932	0.245884
12.7812	12.6373	0.302645	0.246666
12.7817	12.6378	0.304097	0.246542
12.7821	12.6382	0.304677	0.246446
12.7826	12.6387	0.305434	0.247522
12.7831	12.6392	0.304959	0.249268
12.7836	12.6396	0.304751	0.250846
12.784	12.6401	0.304288	0.249602
12.7845	12.6406	0.305883	0.247705
12.785	12.641	0.308588	0.249954
12.7854	12.6415	0.307712	0.251685
12.7859	12.642	0.303949	0.250921
12.7864	12.6424	0.304963	0.249996
12.7869	12.6429	0.306802	0.248873
12.7873	12.6434	0.306389	0.248691
12.7878	12.6438	0.304663	0.248194
12.7883	12.6443	0.304041	0.249347
12.7887	12.6448	0.303988	0.246186
12.7892	12.6453	0.301474	0.244156
12.7897	12.6457	0.306071	0.244992
12.7902	12.6462	0.305892	0.2438
12.7906	12.6467	0.302677	0.244272
12.7911	12.6472	0.304684	0.242397
12.7916	12.6477	0.306693	0.241875
12.7921	12.6481	0.307573	0.240571
12.7925	12.6486	0.304974	0.240099
12.793	12.6491	0.307037	0.239261
12.7935	12.6495	0.30655	0.236392
12.7939	12.65	0.305813	0.233372
12.7944	12.6505	0.307617	0.232824
12.7949	12.651	0.309774	0.233192
12.7954	12.6515	0.306037	0.230507
12.7958	12.6519	0.30817	0.227546
12.7963	12.6524	0.309637	0.225947
12.7968	12.6529	0.308893	0.22433
12.7972	12.6533	0.30829	0.222854
12.7977	12.6538	0.307948	0.222489
12.7982	12.6543	0.309003	0.219649
12.7987	12.6547	0.307691	0.216194
12.7991	12.6552	0.310241	0.217772
12.7996	12.6557	0.309471	0.217404
12.8001	12.6562	0.307168	0.215321
12.8006	12.6567	0.308029	0.214097
12.801	12.6571	0.310279	0.213396
12.8015	12.6576	0.308589	0.212723
12.802	12.6581	0.309088	0.214391
12.8024	12.6586	0.310278	0.215427
12.8029	12.659	0.308149	0.214092
12.8034	12.6595	0.30841	0.213544
12.8039	12.6599	0.310376	0.215441
12.8043	12.6604	0.310752	0.21885
12.8048	12.6609	0.308946	0.219076
12.8053	12.6614	0.310937	0.220087
12.8057	12.6618	0.312006	0.220651
12.8062	12.6623	0.309926	0.221978
12.8067	12.6628	0.311412	0.225352
12.8072	12.6632	0.311107	0.228555
12.8076	12.6637	0.309311	0.227647
12.8081	12.6642	0.312436	0.228689
12.8086	12.6646	0.311032	0.230425
12.8091	12.6651	0.312316	0.234317
12.8095	12.6656	0.310283	0.236432
12.81	12.6661	0.311032	0.236294
12.8105	12.6666	0.311128	0.23797
12.8109	12.667	0.311984	0.240351
12.8114	12.6675	0.312759	0.244117
12.8119	12.668	0.312456	0.246412
12.8124	12.6685	0.309959	0.245844
12.8128	12.6689	0.310924	0.245805
12.8133	12.6694	0.314779	0.251404
12.8138	12.6698	0.314493	0.254411
12.8142	12.6703	0.310535	0.255254
12.8147	12.6708	0.311118	0.253983
12.8152	12.6712	0.313804	0.258302
12.8157	12.6717	0.313602	0.258757
12.8161	12.6722	0.309917	0.260204
12.8166	12.6726	0.312194	0.263686
12.8171	12.6731	0.311959	0.263399
12.8176	12.6736	0.312069	0.262833
12.818	12.6741	0.311694	0.266431
12.8185	12.6745	0.313248	0.269186
12.819	12.675	0.312183	0.268111
12.8194	12.6755	0.311905	0.268267
12.8199	12.676	0.314552	0.269657
12.8204	12.6765	0.312397	0.269313
12.8209	12.6769	0.311867	0.269618
12.8213	12.6774	0.312199	0.272302
12.8218	12.6779	0.311299	0.268623
12.8223	12.6784	0.31131	0.268043
12.8227	12.6788	0.314276	0.269632
12.8232	12.6793	0.314787	0.270707
12.8237	12.6798	0.312243	0.267388
12.8242	12.6802	0.312543	0.265194
12.8246	12.6807	0.315308	0.264852
12.8251	12.6812	0.313337	0.261908
12.8256	12.6817	0.312689	0.260827
12.8261	12.6821	0.312348	0.258035
12.8265	12.6826	0.312247	0.255395
12.827	12.6831	0.313628	0.25226
12.8275	12.6835	0.311304	0.249517
12.8279	12.684	0.312715	0.24949
12.8284	12.6845	0.311121	0.246699
12.8289	12.685	0.311244	0.243196
12.8294	12.6854	0.313254	0.239508
12.8298	12.6859	0.313531	0.236808
12.8303	12.6864	0.313355	0.23533
12.8308	12.6869	0.314427	0.232536
12.8312	12.6874	0.313222	0.226967
12.8317	12.6878	0.314293	0.224724
12.8322	12.6883	0.315433	0.22196
12.8327	12.6888	0.31576	0.219956
12.8331	12.6892	0.312618	0.217127
12.8336	12.6897	0.314618	0.215979
12.8341	12.6902	0.316195	0.216563
12.8346	12.6906	0.312626	0.216251
12.835	12.6911	0.314624	0.220737
12.8355	12.6916	0.314184	0.224837
12.836	12.6921	0.313975	0.225809
12.8364	12.6925	0.31451	0.229964
12.8369	12.693	0.314306	0.2348
12.8374	12.6934	0.31431	0.240374
12.8379	12.6939	0.312288	0.244052
12.8383	12.6944	0.312408	0.247254
12.8388	12.6949	0.315617	0.250944
12.8393	12.6953	0.313034	0.252535
12.8397	12.6958	0.314187	0.254399
12.8402	12.6963	0.313467	0.256254
12.8407	12.6968	0.312931	0.255193
12.8412	12.6972	0.313554	0.251908
12.8416	12.6977	0.312941	0.252013
12.8421	12.6982	0.314927	0.251044
12.8426	12.6986	0.312783	0.248304
12.8431	12.6991	0.312435	0.242997
12.8435	12.6996	0.313251	0.239611
12.844	12.7	0.313106	0.237754
12.8445	12.7005	0.312084	0.23399
12.8449	12.701	0.311823	0.231247
12.8454	12.7015	0.310055	0.225911
12.8459	12.7019	0.312383	0.222066
12.8464	12.7024	0.311837	0.221856
12.8468	12.7029	0.311524	0.221254
12.8473	12.7033	0.31084	0.219882
12.8478	12.7038	0.311435	0.220567
12.8482	12.7043	0.315035	0.224124
12.8487	12.7048	0.313126	0.229834
12.8492	12.7053	0.314446	0.234846
12.8497	12.7057	0.313268	0.243124
12.8501	12.7062	0.314303	0.249365
12.8506	12.7067	0.314636	0.257121
12.8511	12.7072	0.314931	0.269023
12.8516	12.7077	0.31459	0.281557
12.852	12.7081	0.312523	0.291031
12.8525	12.7086	0.312142	0.302979
12.853	12.7091	0.315181	0.318061
12.8534	12.7095	0.314175	0.332016
12.8539	12.71	0.313373	0.344654
12.8544	12.7105	0.313745	0.35787
12.8549	12.7109	0.313996	0.368897
12.8553	12.7114	0.317524	0.384288
12.8558	12.7119	0.32102	0.400046
12.8563	12.7124	0.315766	0.407993
12.8567	12.7128	0.313197	0.414547
12.8572	12.7133	0.313397	0.423079
12.8577	12.7138	0.316789	0.432939
12.8582	12.7142	0.313881	0.439248
12.8586	12.7147	0.314574	0.446451
12.8591	12.7152	0.31382	0.45715
12.8596	12.7157	0.314381	0.461622
12.8601	12.7161	0.314587	0.470482
12.8605	12.7166	0.313646	0.480933
12.861	12.7171	0.314499	0.49217
12.8615	12.7176	0.313405	0.496644
12.8619	12.718	0.314064	0.500147
12.8624	12.7185	0.315872	0.50054
12.8629	12.719	0.313	0.499181
12.8634	12.7194	0.314468	0.496172
12.8638	12.7199	0.31391	0.493401
12.8643	12.7204	0.313087	0.485895
12.8648	12.7208	0.31564	0.48367
12.8652	12.7213	0.31331	0.488961
12.8657	12.7218	0.314297	0.496174
12.8662	12.7222	0.312672	0.506236
12.8667	12.7227	0.313341	0.526482
12.8671	12.7232	0.314984	0.55939
12.8676	12.7236	0.312626	0.601643
12.8681	12.7241	0.310817	0.650995
12.8686	12.7246	0.311063	0.701523
12.869	12.7251	0.310781	0.746337
12.8695	12.7255	0.311486	0.788414
12.87	12.726	0.312216	0.827524
12.8704	12.7265	0.312758	0.856393
12.8709	12.727	0.313246	0.870442
12.8714	12.7274	0.312417	0.882688
12.8719	12.7279	0.317411	0.899906
12.8723	12.7284	0.314597	0.90276
12.8728	12.7289	0.312953	0.90992
12.8733	12.7293	0.313884	0.918899
12.8737	12.7298	0.314628	0.922422
12.8742	12.7303	0.316008	0.927232
12.8747	12.7307	0.317762	0.935169
12.8752	12.7312	0.317972	0.941968
12.8756	12.7317	0.31666	0.936774
12.8761	12.7322	0.315646	0.939749
12.8766	12.7326	0.319165	0.950533
12.8771	12.7331	0.318365	0.946529
12.8775	12.7336	0.317654	0.949497
12.878	12.734	0.315972	0.948918
12.8785	12.7345	0.316785	0.947616
12.8789	12.735	0.316129	0.949263
12.8794	12.7355	0.317762	0.954054
12.8799	12.736	0.319234	0.9587
12.8804	12.7365	0.319079	0.959353
12.8808	12.7369	0.318546	0.957591
12.8813	12.7374	0.320655	0.961686
12.8818	12.7379	0.321293	0.966848
12.8822	12.7384	0.319927	0.969403
12.8827	12.7388	0.320214	0.966035
12.8832	12.7393	0.319268	0.963195
12.8837	12.7398	0.319522	0.965629
12.8841	12.7402	0.320838	0.972367
12.8846	12.7407	0.318967	0.971192
12.8851	12.7412	0.319495	0.969091
12.8856	12.7417	0.319921	0.967118
12.886	12.7421	0.322174	0.972708
12.8865	12.7426	0.320317	0.972826
12.887	12.743	0.321235	0.974863
12.8874	12.7435	0.321348	0.977056
12.8879	12.744	0.321223	0.976882
12.8884	12.7445	0.321846	0.976279
12.8889	12.7449	0.323432	0.979839
12.8893	12.7454	0.322295	0.983385
12.8898	12.7459	0.322415	0.982687
12.8903	12.7464	0.322135	0.980413
12.8907	12.7468	0.324069	0.981314
12.8912	12.7473	0.323167	0.982085
12.8917	12.7478	0.322777	0.984223
12.8922	12.7483	0.323595	0.984771
12.8926	12.7487	0.320271	0.979202
12.8931	12.7492	0.325413	0.982198
12.8936	12.7497	0.325787	0.988965
12.8941	12.7501	0.324803	0.988741
12.8945	12.7506	0.323083	0.984975
12.895	12.7511	0.325039	0.989234
12.8955	12.7515	0.326486	0.989388
12.8959	12.752	0.324636	0.987343
12.8964	12.7525	0.324507	0.991144
12.8969	12.7529	0.324492	0.990911
12.8974	12.7534	0.32232	0.98397
12.8978	12.7539	0.323013	0.984353
12.8983	12.7543	0.324093	0.990926
12.8988	12.7548	0.324437	0.993996
