# 1304     AichiSR QXAFS
# Start     : 8.9544
# End       : 9.0544
# Dir       : Backward
# Points    : 300
# ScanTime  : 1.01549
# Date      : 13.04.23 22:23
# Ring Cur. : 25.5[mA]
12.7557	12.6118	0.307658	0.236883
12.7562	12.6122	0.307621	0.235965
12.7566	12.6127	0.308903	0.235162
12.7571	12.6131	0.30966	0.238323
12.7576	12.6136	0.3068	0.236603
12.7581	12.6141	0.308965	0.240416
12.7585	12.6145	0.310618	0.241146
12.759	12.615	0.308423	0.23862
12.7595	12.6155	0.311028	0.2403
12.7599	12.616	0.311381	0.24183
12.7604	12.6164	0.310293	0.243149
12.7609	12.6169	0.308831	0.241632
12.7614	12.6174	0.309602	0.241755
12.7618	12.6179	0.313657	0.241739
12.7623	12.6183	0.309125	0.240969
12.7628	12.6188	0.311205	0.243346
12.7632	12.6193	0.311324	0.24236
12.7637	12.6197	0.308211	0.239895
12.7642	12.6202	0.311986	0.241382
12.7647	12.6207	0.310848	0.24367
12.7651	12.6212	0.310448	0.243301
12.7656	12.6217	0.308637	0.241612
12.7661	12.6221	0.311653	0.241928
12.7666	12.6226	0.312141	0.243049
12.767	12.6231	0.312526	0.245377
12.7675	12.6235	0.309032	0.245239
12.768	12.624	0.31071	0.246876
12.7684	12.6245	0.310608	0.245035
12.7689	12.6249	0.312421	0.246035
12.7694	12.6254	0.311172	0.24784
12.7699	12.6259	0.311603	0.248279
12.7703	12.6264	0.309946	0.247826
12.7708	12.6269	0.310153	0.246723
12.7713	12.6273	0.312287	0.248679
12.7717	12.6278	0.309061	0.249282
12.7722	12.6283	0.310554	0.25045
12.7727	12.6288	0.311446	0.249621
12.7732	12.6292	0.309454	0.249247
12.7736	12.6297	0.312782	0.249329
12.7741	12.6302	0.31266	0.250952
12.7746	12.6306	0.312651	0.25156
12.7751	12.6311	0.311297	0.249971
12.7755	12.6316	0.313791	0.248854
12.776	12.6321	0.313962	0.248385
12.7765	12.6325	0.311181	0.249295
12.7769	12.633	0.312927	0.249319
12.7774	12.6334	0.311909	0.250268
12.7779	12.6339	0.310645	0.247285
12.7784	12.6344	0.313461	0.247674
12.7788	12.6349	0.312154	0.250789
12.7793	12.6353	0.31189	0.251556
12.7798	12.6358	0.312761	0.251407
12.7802	12.6363	0.313662	0.251797
12.7807	12.6368	0.314561	0.251016
12.7812	12.6372	0.312619	0.252826
12.7817	12.6377	0.314092	0.255289
12.7821	12.6382	0.312123	0.253969
12.7826	12.6387	0.313865	0.255061
12.7831	12.6391	0.313283	0.254847
12.7836	12.6396	0.314232	0.256114
12.784	12.64	0.311322	0.255745
12.7845	12.6405	0.313444	0.256009
12.785	12.641	0.313413	0.255874
12.7854	12.6415	0.314041	0.254847
12.7859	12.6419	0.313485	0.256453
12.7864	12.6424	0.312163	0.256933
12.7869	12.6429	0.314409	0.257325
12.7873	12.6433	0.3116	0.253809
12.7878	12.6438	0.313482	0.255041
12.7883	12.6443	0.314431	0.255414
12.7887	12.6447	0.312732	0.256068
12.7892	12.6452	0.311082	0.252091
12.7897	12.6457	0.312218	0.249937
12.7902	12.6462	0.314123	0.249931
12.7906	12.6467	0.312077	0.249497
12.7911	12.6471	0.311203	0.249034
12.7916	12.6476	0.313256	0.247088
12.7921	12.6481	0.314578	0.245209
12.7925	12.6486	0.314638	0.244636
12.793	12.649	0.314046	0.244789
12.7935	12.6495	0.314086	0.243914
12.7939	12.65	0.315563	0.240848
12.7944	12.6504	0.31679	0.239296
12.7949	12.6509	0.319075	0.238634
12.7954	12.6514	0.315823	0.235802
12.7958	12.6519	0.315896	0.235025
12.7963	12.6523	0.317538	0.233168
12.7968	12.6528	0.314845	0.228302
12.7972	12.6533	0.315276	0.226985
12.7977	12.6537	0.317717	0.226546
12.7982	12.6542	0.316464	0.226749
12.7987	12.6547	0.315643	0.222789
12.7991	12.6552	0.316445	0.221431
12.7996	12.6557	0.319571	0.222041
12.8001	12.6561	0.317006	0.219784
12.8006	12.6566	0.315602	0.220809
12.801	12.6571	0.317087	0.220568
12.8015	12.6576	0.317491	0.2172
12.802	12.658	0.318987	0.2181
12.8024	12.6585	0.317362	0.219654
12.8029	12.659	0.316488	0.222249
12.8034	12.6594	0.315808	0.22017
12.8039	12.6599	0.318624	0.220765
12.8043	12.6604	0.319082	0.223799
12.8048	12.6609	0.316864	0.22308
12.8053	12.6613	0.317936	0.227495
12.8057	12.6618	0.318126	0.227115
12.8062	12.6623	0.319574	0.226775
12.8067	12.6627	0.319219	0.228764
12.8072	12.6632	0.320791	0.233238
12.8076	12.6636	0.317855	0.234095
12.8081	12.6641	0.317663	0.234799
12.8086	12.6646	0.318699	0.235705
12.8091	12.6651	0.321158	0.239993
12.8095	12.6656	0.317716	0.240675
12.81	12.666	0.318955	0.244156
12.8105	12.6665	0.318332	0.244851
12.8109	12.667	0.318042	0.244193
12.8114	12.6675	0.320396	0.248194
12.8119	12.6679	0.319622	0.252164
12.8124	12.6684	0.316666	0.253036
12.8128	12.6689	0.317466	0.254067
12.8133	12.6693	0.320978	0.256196
12.8138	12.6698	0.321219	0.259141
12.8142	12.6703	0.317974	0.260382
12.8147	12.6707	0.319842	0.263157
12.8152	12.6712	0.319479	0.264262
12.8157	12.6717	0.319652	0.263526
12.8161	12.6721	0.320135	0.266665
12.8166	12.6726	0.321469	0.270438
12.8171	12.6731	0.318034	0.270652
12.8176	12.6735	0.317642	0.269595
12.818	12.674	0.319617	0.270584
12.8185	12.6745	0.322368	0.272543
12.819	12.675	0.318828	0.275131
12.8194	12.6755	0.319035	0.27598
12.8199	12.6759	0.31819	0.275343
12.8204	12.6764	0.321022	0.276054
12.8209	12.6769	0.320982	0.275845
12.8213	12.6774	0.32182	0.278319
12.8218	12.6779	0.318154	0.276535
12.8223	12.6783	0.318738	0.275202
12.8227	12.6788	0.3211	0.274596
12.8232	12.6793	0.320936	0.275254
12.8237	12.6797	0.320349	0.273511
12.8242	12.6802	0.319069	0.271808
12.8246	12.6807	0.320667	0.268672
12.8251	12.6812	0.319888	0.266477
12.8256	12.6816	0.319193	0.263908
12.8261	12.6821	0.319824	0.264704
12.8265	12.6826	0.318181	0.261116
12.827	12.683	0.316661	0.256818
12.8275	12.6835	0.317135	0.252453
12.8279	12.684	0.320481	0.251837
12.8284	12.6844	0.32039	0.251927
12.8289	12.6849	0.318297	0.247525
12.8294	12.6854	0.319754	0.244764
12.8298	12.6859	0.321834	0.241577
12.8303	12.6864	0.320148	0.239068
12.8308	12.6868	0.320258	0.237451
12.8312	12.6873	0.318592	0.233479
12.8317	12.6878	0.318635	0.228434
12.8322	12.6883	0.320933	0.224755
12.8327	12.6887	0.320192	0.222808
12.8331	12.6892	0.320634	0.222863
12.8336	12.6897	0.319237	0.221874
12.8341	12.6901	0.320974	0.220315
12.8346	12.6906	0.321334	0.220385
12.835	12.6911	0.324206	0.227254
12.8355	12.6915	0.323901	0.230204
12.836	12.692	0.319338	0.23184
12.8364	12.6925	0.319027	0.233703
12.8369	12.6929	0.322146	0.240643
12.8374	12.6934	0.321284	0.244211
12.8379	12.6939	0.322238	0.250057
12.8383	12.6943	0.319537	0.254137
12.8388	12.6948	0.320309	0.255899
12.8393	12.6953	0.319191	0.256803
12.8397	12.6958	0.321031	0.259932
12.8402	12.6962	0.322538	0.262486
12.8407	12.6967	0.319226	0.261552
12.8412	12.6972	0.320479	0.25822
12.8416	12.6977	0.319731	0.257117
12.8421	12.6981	0.320198	0.254691
12.8426	12.6986	0.318702	0.254145
12.8431	12.6991	0.320393	0.251683
12.8435	12.6995	0.320451	0.245732
12.844	12.7	0.32009	0.240598
12.8445	12.7005	0.320431	0.238337
12.8449	12.7009	0.321355	0.235426
12.8454	12.7014	0.320028	0.233553
12.8459	12.7019	0.317869	0.227523
12.8464	12.7024	0.320602	0.227131
12.8468	12.7028	0.321931	0.226647
12.8473	12.7033	0.321519	0.226929
12.8478	12.7038	0.321255	0.228624
12.8482	12.7042	0.321564	0.230943
12.8487	12.7047	0.32251	0.235382
12.8492	12.7052	0.323894	0.241544
12.8497	12.7057	0.324593	0.250988
12.8501	12.7062	0.322657	0.25968
12.8506	12.7066	0.32209	0.266194
12.8511	12.7071	0.325968	0.278581
12.8516	12.7076	0.325066	0.289575
12.852	12.7081	0.324582	0.302891
12.8525	12.7086	0.324434	0.318079
12.853	12.709	0.324527	0.328571
12.8534	12.7095	0.325543	0.342059
12.8539	12.7099	0.324417	0.356725
12.8544	12.7104	0.326574	0.375209
12.8549	12.7109	0.324286	0.385013
12.8553	12.7114	0.324131	0.394007
12.8558	12.7118	0.327291	0.409655
12.8563	12.7123	0.326315	0.420668
12.8567	12.7128	0.32575	0.429134
12.8572	12.7132	0.3261	0.439972
12.8577	12.7137	0.32727	0.447429
12.8582	12.7142	0.3272	0.455023
12.8586	12.7147	0.325991	0.464114
12.8591	12.7151	0.327157	0.474746
12.8596	12.7156	0.326539	0.482917
12.8601	12.7161	0.326261	0.489603
12.8605	12.7166	0.328053	0.500398
12.861	12.7171	0.326369	0.506592
12.8615	12.7175	0.326337	0.514992
12.8619	12.718	0.327124	0.520588
12.8624	12.7185	0.325646	0.516722
12.8629	12.7189	0.327692	0.516746
12.8634	12.7194	0.326947	0.514352
12.8638	12.7199	0.32874	0.513149
12.8643	12.7203	0.325507	0.507309
12.8648	12.7208	0.327504	0.505423
12.8652	12.7213	0.33024	0.508736
12.8657	12.7217	0.326975	0.517044
12.8662	12.7222	0.325026	0.529177
12.8667	12.7227	0.324656	0.55257
12.8671	12.7231	0.325937	0.581719
12.8676	12.7236	0.326267	0.627622
12.8681	12.7241	0.324382	0.679689
12.8686	12.7245	0.323484	0.727251
12.869	12.725	0.322343	0.775738
12.8695	12.7255	0.322985	0.817336
12.87	12.726	0.325846	0.85711
12.8704	12.7264	0.32694	0.886428
12.8709	12.7269	0.326343	0.906717
12.8714	12.7274	0.326017	0.92121
12.8719	12.7279	0.326689	0.931861
12.8723	12.7284	0.327995	0.941788
12.8728	12.7288	0.32679	0.95046
12.8733	12.7293	0.328451	0.955939
12.8737	12.7297	0.326637	0.959214
12.8742	12.7302	0.325402	0.958358
12.8747	12.7307	0.32913	0.970428
12.8752	12.7312	0.329767	0.975757
12.8756	12.7317	0.327409	0.971446
12.8761	12.7321	0.328843	0.976941
12.8766	12.7326	0.327953	0.98101
12.8771	12.7331	0.331407	0.984019
12.8775	12.7335	0.329472	0.984506
12.878	12.734	0.330045	0.990473
12.8785	12.7345	0.329349	0.99112
12.8789	12.735	0.327914	0.984141
12.8794	12.7354	0.330653	0.989903
12.8799	12.7359	0.330753	0.993631
12.8804	12.7364	0.330336	0.996948
12.8808	12.7369	0.328615	0.994447
12.8813	12.7374	0.329926	0.9932
12.8818	12.7378	0.330665	0.996847
12.8822	12.7383	0.330487	1.00034
12.8827	12.7388	0.331663	1.00786
12.8832	12.7392	0.33008	1.00124
12.8837	12.7397	0.32977	1.00012
12.8841	12.7402	0.333549	1.00652
12.8846	12.7407	0.333953	1.00863
12.8851	12.7411	0.330686	1.00685
12.8856	12.7416	0.33266	1.0075
12.886	12.7421	0.332027	1.00821
12.8865	12.7425	0.332144	1.00513
12.887	12.743	0.331085	1.00537
12.8874	12.7435	0.333913	1.01226
12.8879	12.7439	0.331652	1.01031
12.8884	12.7444	0.33086	1.00291
12.8889	12.7449	0.333818	1.01311
12.8893	12.7454	0.334839	1.01804
12.8898	12.7459	0.334271	1.01795
12.8903	12.7463	0.334925	1.01793
12.8907	12.7468	0.332189	1.01081
12.8912	12.7473	0.335502	1.01437
12.8917	12.7478	0.334547	1.01874
12.8922	12.7482	0.33454	1.02148
12.8926	12.7487	0.332081	1.01408
12.8931	12.7492	0.332819	1.01453
12.8936	12.7496	0.33611	1.01768
12.8941	12.7501	0.33437	1.0149
12.8945	12.7505	0.33328	1.01974
12.895	12.751	0.334642	1.02011
12.8955	12.7515	0.333076	1.01636
12.8959	12.752	0.334233	1.01484
12.8964	12.7524	0.334182	1.02006
12.8969	12.7529	0.335416	1.02538
12.8974	12.7534	0.335044	1.02023
12.8978	12.7538	0.332069	1.01452
12.8983	12.7543	0.335791	1.01965
12.8988	12.7548	0.336895	1.02676
