# 1304     AichiSR QXAFS
# Start     : 8.9544
# End       : 9.0544
# Dir       : Backward
# Points    : 300
# ScanTime  : 1.01549
# Date      : 13.04.23 22:29
# Ring Cur. : 25.6[mA]
12.7557	12.6118	0.299191	0.229011
12.7562	12.6123	0.297649	0.229362
12.7566	12.6127	0.298645	0.229266
12.7571	12.6132	0.298814	0.227885
12.7576	12.6136	0.300176	0.23022
12.7581	12.6141	0.29817	0.230953
12.7585	12.6146	0.299931	0.234701
12.759	12.6151	0.297473	0.231885
12.7595	12.6155	0.298507	0.231644
12.7599	12.616	0.30256	0.234469
12.7604	12.6165	0.302404	0.235448
12.7609	12.617	0.29923	0.234408
12.7614	12.6175	0.299762	0.233647
12.7618	12.6179	0.301893	0.234771
12.7623	12.6184	0.302865	0.233918
12.7628	12.6189	0.300703	0.234928
12.7632	12.6193	0.301056	0.235906
12.7637	12.6198	0.299981	0.233852
12.7642	12.6203	0.297854	0.231933
12.7647	12.6208	0.302615	0.234434
12.7651	12.6212	0.302757	0.236898
12.7656	12.6217	0.298955	0.234201
12.7661	12.6222	0.300996	0.237355
12.7666	12.6226	0.301871	0.235668
12.767	12.6231	0.302662	0.237199
12.7675	12.6236	0.301507	0.237507
12.768	12.6241	0.302147	0.23927
12.7684	12.6245	0.299962	0.238247
12.7689	12.625	0.297529	0.235616
12.7694	12.6255	0.304384	0.240285
12.7699	12.626	0.302774	0.240416
12.7703	12.6265	0.301376	0.241532
12.7708	12.6269	0.300257	0.240947
12.7713	12.6274	0.301876	0.241144
12.7717	12.6279	0.302958	0.241318
12.7722	12.6284	0.301852	0.242569
12.7727	12.6288	0.303171	0.243844
12.7732	12.6293	0.301033	0.242035
12.7736	12.6297	0.299633	0.240738
12.7741	12.6302	0.302903	0.242939
12.7746	12.6307	0.304455	0.244142
12.7751	12.6312	0.300766	0.242516
12.7755	12.6317	0.302728	0.242362
12.776	12.6321	0.300804	0.241385
12.7765	12.6326	0.303941	0.240528
12.7769	12.633	0.303673	0.243204
12.7774	12.6335	0.304122	0.243496
12.7779	12.634	0.302156	0.242007
12.7784	12.6344	0.301786	0.240348
12.7788	12.6349	0.306031	0.242933
12.7793	12.6354	0.304178	0.244057
12.7798	12.6359	0.30206	0.243507
12.7802	12.6364	0.30223	0.24504
12.7807	12.6368	0.304218	0.242669
12.7812	12.6373	0.302345	0.243997
12.7817	12.6378	0.304449	0.246282
12.7821	12.6383	0.303351	0.24769
12.7826	12.6387	0.304122	0.246569
12.7831	12.6392	0.302564	0.245287
12.7836	12.6396	0.305977	0.247327
12.784	12.6401	0.304435	0.249492
12.7845	12.6406	0.303135	0.248904
12.785	12.641	0.305515	0.249206
12.7854	12.6415	0.301946	0.247134
12.7859	12.642	0.304294	0.247469
12.7864	12.6425	0.305338	0.249755
12.7869	12.6429	0.304421	0.25092
12.7873	12.6434	0.302969	0.247635
12.7878	12.6438	0.3009	0.245861
12.7883	12.6443	0.306393	0.24815
12.7887	12.6448	0.304147	0.247323
12.7892	12.6453	0.301364	0.244644
12.7897	12.6458	0.303335	0.245038
12.7902	12.6462	0.302661	0.241098
12.7906	12.6467	0.302963	0.240944
12.7911	12.6472	0.3042	0.241478
12.7916	12.6477	0.306056	0.242665
12.7921	12.6482	0.302202	0.239055
12.7925	12.6486	0.302232	0.235378
12.793	12.6491	0.306412	0.235829
12.7935	12.6496	0.30588	0.23581
12.7939	12.65	0.305493	0.234202
12.7944	12.6505	0.30397	0.232273
12.7949	12.651	0.305687	0.228595
12.7954	12.6515	0.306455	0.227491
12.7958	12.6519	0.306864	0.226756
12.7963	12.6524	0.306654	0.226563
12.7968	12.6529	0.306512	0.22258
12.7972	12.6533	0.304535	0.220086
12.7977	12.6538	0.308206	0.21923
12.7982	12.6543	0.30804	0.218285
12.7987	12.6548	0.306118	0.21806
12.7991	12.6552	0.306553	0.216691
12.7996	12.6557	0.307237	0.213283
12.8001	12.6562	0.30458	0.211735
12.8006	12.6567	0.307441	0.213203
12.801	12.6572	0.307743	0.212923
12.8015	12.6576	0.307361	0.210848
12.802	12.6581	0.305032	0.20913
12.8024	12.6586	0.307493	0.213403
12.8029	12.659	0.308056	0.214389
12.8034	12.6595	0.306039	0.213692
12.8039	12.66	0.305795	0.213648
12.8043	12.6604	0.307652	0.215175
12.8048	12.6609	0.308336	0.215911
12.8053	12.6614	0.308746	0.220027
12.8057	12.6619	0.307263	0.221534
12.8062	12.6623	0.30701	0.220791
12.8067	12.6628	0.306575	0.221475
12.8072	12.6632	0.30998	0.224599
12.8076	12.6637	0.307627	0.22737
12.8081	12.6642	0.309539	0.228038
12.8086	12.6647	0.307073	0.229826
12.8091	12.6651	0.308948	0.229762
12.8095	12.6656	0.313519	0.235051
12.81	12.6661	0.312754	0.237471
12.8105	12.6666	0.310263	0.239564
12.8109	12.667	0.308076	0.23852
12.8114	12.6675	0.30776	0.239362
12.8119	12.668	0.311766	0.242645
12.8124	12.6685	0.310671	0.245782
12.8128	12.6689	0.3075	0.246531
12.8133	12.6694	0.309064	0.248612
12.8138	12.6698	0.308097	0.249966
12.8142	12.6703	0.309639	0.252002
12.8147	12.6708	0.309095	0.256527
12.8152	12.6713	0.310973	0.257341
12.8157	12.6717	0.308755	0.255993
12.8161	12.6722	0.308926	0.2583
12.8166	12.6727	0.312194	0.261819
12.8171	12.6731	0.309349	0.262919
12.8176	12.6736	0.308647	0.264121
12.818	12.6741	0.31075	0.263062
12.8185	12.6745	0.311814	0.264451
12.819	12.675	0.309569	0.264387
12.8194	12.6755	0.310755	0.268107
12.8199	12.676	0.311041	0.270316
12.8204	12.6765	0.309347	0.2686
12.8209	12.677	0.309689	0.266919
12.8213	12.6774	0.311806	0.268984
12.8218	12.6779	0.312672	0.271278
12.8223	12.6784	0.308801	0.268908
12.8227	12.6789	0.310577	0.268111
12.8232	12.6793	0.313326	0.267079
12.8237	12.6798	0.313144	0.267698
12.8242	12.6803	0.313576	0.267141
12.8246	12.6807	0.31392	0.26617
12.8251	12.6812	0.311842	0.259734
12.8256	12.6817	0.312362	0.258061
12.8261	12.6822	0.314622	0.258039
12.8265	12.6826	0.314793	0.256241
12.827	12.6831	0.311181	0.254011
12.8275	12.6835	0.311816	0.250066
12.8279	12.684	0.313599	0.247773
12.8284	12.6845	0.313384	0.245052
12.8289	12.685	0.315164	0.245237
12.8294	12.6855	0.313403	0.242603
12.8298	12.6859	0.312892	0.237363
12.8303	12.6864	0.313625	0.233476
12.8308	12.6869	0.316069	0.232523
12.8312	12.6874	0.316799	0.229955
12.8317	12.6879	0.314297	0.22596
12.8322	12.6883	0.316299	0.222332
12.8327	12.6888	0.315283	0.21904
12.8331	12.6893	0.315987	0.217935
12.8336	12.6897	0.316289	0.21901
12.8341	12.6902	0.316934	0.219796
12.8346	12.6907	0.314599	0.2187
12.835	12.6911	0.314321	0.218785
12.8355	12.6916	0.317075	0.224576
12.836	12.6921	0.3159	0.229195
12.8364	12.6925	0.317023	0.234587
12.8369	12.693	0.316913	0.237593
12.8374	12.6935	0.31502	0.239426
12.8379	12.6939	0.31822	0.245005
12.8383	12.6944	0.318072	0.252618
12.8388	12.6949	0.317479	0.255908
12.8393	12.6953	0.315116	0.25374
12.8397	12.6958	0.316297	0.256202
12.8402	12.6963	0.317835	0.257964
12.8407	12.6968	0.317863	0.258764
12.8412	12.6973	0.316765	0.258875
12.8416	12.6977	0.317524	0.254414
12.8421	12.6982	0.317287	0.252173
12.8426	12.6987	0.317163	0.249137
12.8431	12.6991	0.318545	0.249088
12.8435	12.6996	0.31876	0.247233
12.844	12.7	0.317551	0.239983
12.8445	12.7005	0.317102	0.234642
12.8449	12.701	0.318582	0.23209
12.8454	12.7015	0.319441	0.231462
12.8459	12.702	0.317312	0.227289
12.8464	12.7024	0.317281	0.223611
12.8468	12.7029	0.318003	0.222319
12.8473	12.7033	0.317161	0.223671
12.8478	12.7038	0.318602	0.227501
12.8482	12.7043	0.319489	0.230759
12.8487	12.7048	0.31907	0.232118
12.8492	12.7053	0.318551	0.236258
12.8497	12.7057	0.319259	0.244741
12.8501	12.7062	0.320983	0.254802
12.8506	12.7067	0.319543	0.263473
12.8511	12.7072	0.318686	0.272878
12.8516	12.7077	0.320563	0.284334
12.852	12.7081	0.317165	0.295561
12.8525	12.7086	0.318474	0.311949
12.853	12.7091	0.321654	0.327778
12.8534	12.7095	0.319874	0.336051
12.8539	12.71	0.319543	0.347657
12.8544	12.7105	0.32121	0.365123
12.8549	12.711	0.323564	0.381072
12.8553	12.7114	0.319698	0.391022
12.8558	12.7119	0.321881	0.402864
12.8563	12.7124	0.322627	0.413356
12.8567	12.7128	0.321297	0.421815
12.8572	12.7133	0.321072	0.431738
12.8577	12.7138	0.322343	0.445063
12.8582	12.7142	0.320781	0.449874
12.8586	12.7147	0.3206	0.453155
12.8591	12.7152	0.320327	0.463551
12.8596	12.7157	0.321872	0.47357
12.8601	12.7162	0.322148	0.48587
12.8605	12.7166	0.321264	0.491279
12.861	12.7171	0.322149	0.499492
12.8615	12.7176	0.320892	0.504145
12.8619	12.7181	0.322006	0.512138
12.8624	12.7185	0.322937	0.515839
12.8629	12.719	0.319612	0.508937
12.8634	12.7194	0.320106	0.504121
12.8638	12.7199	0.321024	0.502636
12.8643	12.7204	0.321649	0.500059
12.8648	12.7209	0.319019	0.496417
12.8652	12.7213	0.319991	0.49663
12.8657	12.7218	0.321078	0.504993
12.8662	12.7223	0.31792	0.51387
12.8667	12.7227	0.319354	0.540009
12.8671	12.7232	0.320815	0.578339
12.8676	12.7237	0.318458	0.610049
12.8681	12.7241	0.318554	0.657984
12.8686	12.7246	0.318193	0.712772
12.869	12.7251	0.315573	0.76012
12.8695	12.7256	0.3167	0.803973
12.87	12.726	0.318018	0.841693
12.8704	12.7265	0.318399	0.863787
12.8709	12.727	0.317635	0.878694
12.8714	12.7275	0.319998	0.90309
12.8719	12.7279	0.321525	0.91822
12.8723	12.7284	0.317951	0.916265
12.8728	12.7289	0.319953	0.922501
12.8733	12.7293	0.322077	0.933838
12.8737	12.7298	0.321188	0.939438
12.8742	12.7303	0.318728	0.943873
12.8747	12.7308	0.32145	0.949165
12.8752	12.7312	0.322911	0.952068
12.8756	12.7317	0.320506	0.950554
12.8761	12.7322	0.32031	0.956219
12.8766	12.7326	0.322024	0.962895
12.8771	12.7331	0.320638	0.959423
12.8775	12.7336	0.322054	0.959102
12.878	12.7341	0.320654	0.963816
12.8785	12.7345	0.321426	0.964615
12.8789	12.735	0.320247	0.966646
12.8794	12.7355	0.321667	0.969624
12.8799	12.736	0.323866	0.970409
12.8804	12.7365	0.321955	0.969566
12.8808	12.7369	0.319952	0.969279
12.8813	12.7374	0.322186	0.976663
12.8818	12.7379	0.321987	0.971237
12.8822	12.7384	0.323132	0.973377
12.8827	12.7388	0.323881	0.976428
12.8832	12.7393	0.323882	0.981351
12.8837	12.7398	0.321856	0.977085
12.8841	12.7402	0.322575	0.977468
12.8846	12.7407	0.32358	0.981306
12.8851	12.7412	0.323175	0.977858
12.8856	12.7417	0.323412	0.984168
12.886	12.7421	0.32376	0.98477
12.8865	12.7426	0.321171	0.979873
12.887	12.7431	0.323838	0.9763
12.8874	12.7435	0.323625	0.983114
12.8879	12.744	0.323946	0.984516
12.8884	12.7445	0.32123	0.983406
12.8889	12.7449	0.324743	0.985978
12.8893	12.7454	0.326256	0.985791
12.8898	12.7459	0.324807	0.98393
12.8903	12.7464	0.325687	0.987517
12.8907	12.7469	0.325423	0.992932
12.8912	12.7473	0.324424	0.985532
12.8917	12.7478	0.324306	0.98732
12.8922	12.7483	0.327061	0.993583
12.8926	12.7488	0.324537	0.991104
12.8931	12.7492	0.322981	0.988632
12.8936	12.7497	0.325455	0.99246
12.8941	12.7501	0.326749	0.989368
12.8945	12.7506	0.324648	0.9905
12.895	12.7511	0.324492	0.991175
12.8955	12.7516	0.324727	0.991286
12.8959	12.752	0.324223	0.986545
12.8964	12.7525	0.325605	0.989811
12.8969	12.7529	0.325784	0.992976
12.8974	12.7534	0.323306	0.991003
12.8978	12.7539	0.324947	0.992773
12.8983	12.7543	0.325417	0.990889
12.8988	12.7548	0.326482	0.994941
