# 1304     AichiSR QXAFS
# Start     : 8.9544
# End       : 9.0544
# Dir       : Forward
# Points    : 300
# ScanTime  : 1.01549
# Date      : 13.04.23 22:29
# Ring Cur. : 25.7[mA]
12.7557	12.7558	0.404045	1.22796
12.7562	12.7553	0.403724	1.2291
12.7566	12.7548	0.40411	1.23294
12.7571	12.7543	0.402157	1.23277
12.7576	12.7539	0.404211	1.23142
12.7581	12.7534	0.403729	1.22599
12.7585	12.7529	0.404159	1.23072
12.759	12.7525	0.402512	1.23159
12.7595	12.752	0.400649	1.228
12.7599	12.7515	0.401694	1.22561
12.7604	12.7511	0.402404	1.22756
12.7609	12.7506	0.402513	1.22655
12.7614	12.7501	0.40327	1.22683
12.7618	12.7497	0.402276	1.22722
12.7623	12.7492	0.403227	1.22291
12.7628	12.7487	0.403957	1.22429
12.7632	12.7483	0.403021	1.22512
12.7637	12.7478	0.403787	1.22677
12.7642	12.7473	0.400514	1.22597
12.7647	12.7468	0.40098	1.22278
12.7651	12.7464	0.4022	1.22095
12.7656	12.7459	0.402898	1.22016
12.7661	12.7454	0.402458	1.22356
12.7666	12.7449	0.402917	1.22127
12.767	12.7445	0.401701	1.21601
12.7675	12.744	0.402496	1.21578
12.768	12.7435	0.402151	1.21744
12.7684	12.743	0.401108	1.21947
12.7689	12.7426	0.399789	1.21853
12.7694	12.7421	0.400946	1.21463
12.7699	12.7417	0.401218	1.21465
12.7703	12.7412	0.400862	1.21304
12.7708	12.7407	0.40055	1.21681
12.7713	12.7402	0.40007	1.21932
12.7717	12.7398	0.399011	1.20842
12.7722	12.7393	0.40087	1.2125
12.7727	12.7388	0.400016	1.21292
12.7732	12.7384	0.40016	1.21277
12.7736	12.7379	0.399925	1.21037
12.7741	12.7374	0.399812	1.20768
12.7746	12.7369	0.402327	1.20554
12.7751	12.7365	0.401208	1.20498
12.7755	12.736	0.400702	1.20638
12.776	12.7355	0.398783	1.2071
12.7765	12.735	0.398799	1.19948
12.7769	12.7345	0.401475	1.19925
12.7774	12.734	0.398853	1.19671
12.7779	12.7336	0.398675	1.19896
12.7784	12.7331	0.39836	1.19529
12.7788	12.7326	0.397822	1.18743
12.7793	12.7322	0.39867	1.18538
12.7798	12.7317	0.398076	1.18553
12.7802	12.7312	0.398512	1.18478
12.7807	12.7307	0.398225	1.184
12.7812	12.7303	0.396415	1.17152
12.7817	12.7298	0.397871	1.16872
12.7821	12.7293	0.397617	1.16538
12.7826	12.7289	0.398209	1.16263
12.7831	12.7284	0.396187	1.15431
12.7836	12.7279	0.395089	1.14236
12.784	12.7275	0.396945	1.13413
12.7845	12.727	0.395178	1.1227
12.785	12.7265	0.394553	1.10726
12.7854	12.726	0.393299	1.0895
12.7859	12.7256	0.391157	1.05291
12.7864	12.7251	0.392301	1.013
12.7869	12.7246	0.390219	0.970395
12.7873	12.7241	0.389834	0.915376
12.7878	12.7237	0.390907	0.849014
12.7883	12.7232	0.393787	0.787848
12.7887	12.7227	0.395251	0.73191
12.7892	12.7223	0.393689	0.684962
12.7897	12.7218	0.395054	0.654327
12.7902	12.7213	0.393397	0.630553
12.7906	12.7209	0.392521	0.615601
12.7911	12.7204	0.394474	0.609181
12.7916	12.7199	0.39531	0.610919
12.7921	12.7194	0.395041	0.615332
12.7925	12.719	0.393034	0.618705
12.793	12.7185	0.393836	0.6208
12.7935	12.7181	0.394234	0.626262
12.7939	12.7176	0.39437	0.624627
12.7944	12.7171	0.393731	0.625388
12.7949	12.7166	0.393625	0.617674
12.7954	12.7162	0.393201	0.604653
12.7958	12.7157	0.394159	0.595075
12.7963	12.7152	0.392895	0.58501
12.7968	12.7147	0.39353	0.573663
12.7972	12.7142	0.393064	0.563242
12.7977	12.7138	0.39284	0.550658
12.7982	12.7133	0.395879	0.546213
12.7987	12.7128	0.397786	0.539402
12.7991	12.7124	0.394017	0.525264
12.7996	12.7119	0.393606	0.511455
12.8001	12.7114	0.391191	0.495042
12.8006	12.7109	0.39427	0.48331
12.801	12.7105	0.392907	0.470484
12.8015	12.71	0.394869	0.455901
12.802	12.7095	0.392696	0.437669
12.8024	12.7091	0.391679	0.420598
12.8029	12.7086	0.394172	0.404078
12.8034	12.7081	0.392833	0.388773
12.8039	12.7077	0.392674	0.371919
12.8043	12.7072	0.392688	0.357411
12.8048	12.7067	0.392003	0.342409
12.8053	12.7062	0.394518	0.328389
12.8057	12.7057	0.393636	0.317962
12.8062	12.7053	0.394185	0.307994
12.8067	12.7048	0.39167	0.297212
12.8072	12.7043	0.390214	0.288138
12.8076	12.7038	0.393466	0.282406
12.8081	12.7033	0.392969	0.279852
12.8086	12.7029	0.392128	0.277133
12.8091	12.7024	0.392627	0.275725
12.8095	12.702	0.393251	0.27548
12.81	12.7015	0.393684	0.278665
12.8105	12.701	0.392068	0.283148
12.8109	12.7005	0.392461	0.28733
12.8114	12.7	0.392988	0.291468
12.8119	12.6996	0.392211	0.293593
12.8124	12.6991	0.395706	0.299796
12.8128	12.6987	0.394116	0.30452
12.8133	12.6982	0.393015	0.309932
12.8138	12.6977	0.395224	0.312562
12.8142	12.6973	0.393301	0.314738
12.8147	12.6968	0.396513	0.318073
12.8152	12.6963	0.394389	0.320011
12.8157	12.6958	0.394423	0.321427
12.8161	12.6953	0.392103	0.318552
12.8166	12.6949	0.393215	0.316637
12.8171	12.6944	0.393473	0.31523
12.8176	12.6939	0.39501	0.313725
12.818	12.6934	0.393383	0.309938
12.8185	12.693	0.394618	0.30359
12.819	12.6925	0.394094	0.294917
12.8194	12.6921	0.394217	0.290947
12.8199	12.6916	0.395049	0.287264
12.8204	12.6911	0.395161	0.283912
12.8209	12.6906	0.394588	0.277307
12.8213	12.6902	0.393533	0.271608
12.8218	12.6897	0.394375	0.270181
12.8223	12.6892	0.394028	0.272394
12.8227	12.6888	0.39513	0.272914
12.8232	12.6883	0.39408	0.273093
12.8237	12.6879	0.39352	0.276357
12.8242	12.6874	0.395234	0.279357
12.8246	12.6869	0.394546	0.283709
12.8251	12.6864	0.394561	0.288546
12.8256	12.6859	0.392394	0.293519
12.8261	12.6855	0.392832	0.293978
12.8265	12.685	0.394935	0.300438
12.827	12.6845	0.393518	0.303164
12.8275	12.684	0.393222	0.307886
12.8279	12.6835	0.393601	0.311122
12.8284	12.6831	0.392629	0.310988
12.8289	12.6826	0.393632	0.314217
12.8294	12.6821	0.395168	0.319676
12.8298	12.6817	0.394555	0.323247
12.8303	12.6812	0.393882	0.325236
12.8308	12.6807	0.39497	0.326668
12.8312	12.6802	0.395932	0.329576
12.8317	12.6798	0.395629	0.333525
12.8322	12.6793	0.395852	0.337433
12.8327	12.6789	0.397485	0.340725
12.8331	12.6784	0.395341	0.338191
12.8336	12.6779	0.396084	0.339793
12.8341	12.6774	0.396588	0.341995
12.8346	12.677	0.395617	0.343342
12.835	12.6765	0.395812	0.342105
12.8355	12.676	0.395631	0.339271
12.836	12.6755	0.397027	0.340041
12.8364	12.675	0.396678	0.339433
12.8369	12.6745	0.395335	0.340801
12.8374	12.6741	0.396786	0.337919
12.8379	12.6736	0.395486	0.336594
12.8383	12.6731	0.397639	0.335188
12.8388	12.6727	0.396756	0.335655
12.8393	12.6722	0.395907	0.335342
12.8397	12.6717	0.396644	0.331567
12.8402	12.6713	0.395671	0.330144
12.8407	12.6708	0.395612	0.327433
12.8412	12.6703	0.396424	0.325716
12.8416	12.6698	0.394907	0.325747
12.8421	12.6694	0.395419	0.321779
12.8426	12.6689	0.395304	0.31657
12.8431	12.6685	0.396774	0.31495
12.8435	12.668	0.396286	0.315139
12.844	12.6675	0.395811	0.313036
12.8445	12.667	0.396247	0.30881
12.8449	12.6666	0.397408	0.304724
12.8454	12.6661	0.397916	0.304011
12.8459	12.6656	0.396238	0.302604
12.8464	12.6651	0.395332	0.300704
12.8468	12.6647	0.396465	0.297939
12.8473	12.6642	0.396685	0.294336
12.8478	12.6637	0.395794	0.291853
12.8482	12.6632	0.396299	0.291659
12.8487	12.6628	0.396278	0.290387
12.8492	12.6623	0.396338	0.286429
12.8497	12.6619	0.397013	0.283005
12.8501	12.6614	0.397273	0.282232
12.8506	12.6609	0.396186	0.281417
12.8511	12.6604	0.395261	0.278692
12.8516	12.66	0.395903	0.27596
12.852	12.6595	0.395842	0.273909
12.8525	12.659	0.395901	0.273794
12.853	12.6586	0.396357	0.275019
12.8534	12.6581	0.393965	0.272565
12.8539	12.6576	0.393873	0.271637
12.8544	12.6571	0.394465	0.270656
12.8549	12.6567	0.394792	0.27211
12.8553	12.6562	0.393999	0.272654
12.8558	12.6557	0.393748	0.272944
12.8563	12.6552	0.395674	0.273226
12.8567	12.6548	0.395589	0.272539
12.8572	12.6543	0.396271	0.275766
12.8577	12.6538	0.396073	0.279461
12.8582	12.6533	0.395335	0.282588
12.8586	12.6529	0.395558	0.2824
12.8591	12.6524	0.395462	0.283422
12.8596	12.6519	0.395747	0.286887
12.8601	12.6515	0.395443	0.290522
12.8605	12.651	0.395338	0.291668
12.861	12.6505	0.395325	0.294432
12.8615	12.65	0.395398	0.296167
12.8619	12.6496	0.394975	0.299765
12.8624	12.6491	0.396016	0.303541
12.8629	12.6486	0.393151	0.304358
12.8634	12.6482	0.393942	0.304833
12.8638	12.6477	0.395901	0.307536
12.8643	12.6472	0.395435	0.310067
12.8648	12.6467	0.391572	0.31035
12.8652	12.6462	0.390468	0.312005
12.8657	12.6458	0.390451	0.310484
12.8662	12.6453	0.389991	0.311686
12.8667	12.6448	0.389426	0.314426
12.8671	12.6443	0.392262	0.316896
12.8676	12.6439	0.391257	0.317522
12.8681	12.6434	0.392022	0.318016
12.8686	12.6429	0.393471	0.317854
12.869	12.6425	0.393936	0.319553
12.8695	12.642	0.394214	0.321665
12.87	12.6415	0.392953	0.320847
12.8704	12.6411	0.392525	0.320436
12.8709	12.6406	0.393512	0.320002
12.8714	12.6401	0.393785	0.32089
12.8719	12.6396	0.393354	0.321206
12.8723	12.6392	0.392092	0.32085
12.8728	12.6387	0.390746	0.318076
12.8733	12.6383	0.393659	0.317724
12.8737	12.6378	0.394808	0.31772
12.8742	12.6373	0.392745	0.318336
12.8747	12.6368	0.391085	0.316268
12.8752	12.6364	0.393288	0.314459
12.8756	12.6359	0.393567	0.313448
12.8761	12.6354	0.391547	0.31378
12.8766	12.6349	0.393287	0.313107
12.8771	12.6345	0.39126	0.314704
12.8775	12.634	0.390756	0.31086
12.878	12.6335	0.391027	0.311512
12.8785	12.633	0.392194	0.310647
12.8789	12.6326	0.391995	0.312829
12.8794	12.6321	0.389783	0.312526
12.8799	12.6317	0.390265	0.310232
12.8804	12.6312	0.392587	0.312045
12.8808	12.6307	0.390571	0.311633
12.8813	12.6302	0.392086	0.311804
12.8818	12.6298	0.390074	0.312372
12.8822	12.6293	0.389465	0.309636
12.8827	12.6288	0.391338	0.311013
12.8832	12.6284	0.391832	0.311107
12.8837	12.6279	0.391256	0.313949
12.8841	12.6274	0.388632	0.313725
12.8846	12.6269	0.390239	0.30999
12.8851	12.6264	0.389573	0.308758
12.8856	12.626	0.389532	0.310496
12.886	12.6255	0.39129	0.311779
12.8865	12.625	0.38934	0.310381
12.887	12.6245	0.390423	0.308737
12.8874	12.624	0.389244	0.307938
12.8879	12.6236	0.390659	0.307183
12.8884	12.6231	0.390748	0.307797
12.8889	12.6226	0.390179	0.306624
12.8893	12.6222	0.388754	0.304683
12.8898	12.6217	0.388303	0.303495
12.8903	12.6212	0.388865	0.302885
12.8907	12.6207	0.389901	0.304419
12.8912	12.6203	0.388625	0.303718
12.8917	12.6198	0.387387	0.301545
12.8922	12.6193	0.389366	0.302175
12.8926	12.6189	0.388764	0.303608
12.8931	12.6184	0.3896	0.302821
12.8936	12.6179	0.387816	0.302837
12.8941	12.6175	0.387435	0.301672
12.8945	12.617	0.387714	0.301569
12.895	12.6165	0.389747	0.301825
12.8955	12.616	0.387816	0.303212
12.8959	12.6155	0.387858	0.301861
12.8964	12.6151	0.386987	0.300432
12.8969	12.6146	0.38829	0.299808
12.8974	12.6141	0.388529	0.29968
12.8978	12.6136	0.388315	0.302173
12.8983	12.6132	0.38709	0.298675
12.8988	12.6127	0.386235	0.297603
