# 1304     AichiSR QXAFS
# Start     : 8.9544
# End       : 9.0544
# Dir       : Forward
# Points    : 300
# ScanTime  : 1.01549
# Date      : 13.04.23 22:21
# Ring Cur. : 25.4[mA]
12.7557	12.7557	0.405094	1.2291
12.7562	12.7552	0.403664	1.22904
12.7566	12.7548	0.403325	1.23147
12.7571	12.7543	0.402814	1.23172
12.7576	12.7538	0.402218	1.22797
12.7581	12.7533	0.403586	1.22558
12.7585	12.7529	0.403381	1.22686
12.759	12.7524	0.403538	1.23145
12.7595	12.752	0.40137	1.23043
12.7599	12.7515	0.401204	1.22252
12.7604	12.751	0.402964	1.22471
12.7609	12.7505	0.403197	1.22625
12.7614	12.7501	0.401652	1.2229
12.7618	12.7496	0.401229	1.22722
12.7623	12.7491	0.401872	1.2241
12.7628	12.7487	0.404136	1.22139
12.7632	12.7482	0.403435	1.22499
12.7637	12.7477	0.403356	1.22681
12.7642	12.7473	0.400449	1.22462
12.7647	12.7468	0.402519	1.22217
12.7651	12.7463	0.404124	1.22281
12.7656	12.7458	0.403026	1.22359
12.7661	12.7454	0.401844	1.22317
12.7666	12.7449	0.401498	1.22068
12.767	12.7444	0.401355	1.21795
12.7675	12.7439	0.402942	1.22009
12.768	12.7435	0.401101	1.2232
12.7684	12.743	0.401782	1.22194
12.7689	12.7425	0.400676	1.21884
12.7694	12.7421	0.399961	1.21775
12.7699	12.7416	0.403044	1.21902
12.7703	12.7411	0.401539	1.21912
12.7708	12.7406	0.401135	1.21833
12.7713	12.7402	0.401332	1.21692
12.7717	12.7397	0.401845	1.21043
12.7722	12.7392	0.401295	1.21189
12.7727	12.7388	0.399917	1.21191
12.7732	12.7383	0.401132	1.21338
12.7736	12.7378	0.399279	1.21274
12.7741	12.7374	0.398991	1.20735
12.7746	12.7369	0.401794	1.20749
12.7751	12.7364	0.401126	1.21132
12.7755	12.7359	0.401646	1.20977
12.776	12.7354	0.400842	1.20789
12.7765	12.7349	0.399439	1.20017
12.7769	12.7345	0.401236	1.20272
12.7774	12.734	0.401509	1.20545
12.7779	12.7335	0.399851	1.20274
12.7784	12.733	0.400423	1.19638
12.7788	12.7326	0.399397	1.1908
12.7793	12.7321	0.401406	1.19248
12.7798	12.7317	0.40002	1.18969
12.7802	12.7312	0.399258	1.18917
12.7807	12.7307	0.399144	1.18658
12.7812	12.7302	0.39816	1.17746
12.7817	12.7297	0.399808	1.17412
12.7821	12.7293	0.399923	1.17177
12.7826	12.7288	0.400465	1.16947
12.7831	12.7284	0.397039	1.16038
12.7836	12.7279	0.398587	1.14958
12.784	12.7274	0.399107	1.14016
12.7845	12.7269	0.399019	1.12981
12.785	12.7265	0.396795	1.11195
12.7854	12.726	0.395559	1.0878
12.7859	12.7255	0.392921	1.05541
12.7864	12.725	0.394991	1.01376
12.7869	12.7245	0.394316	0.973114
12.7873	12.7241	0.39318	0.920049
12.7878	12.7236	0.393398	0.858015
12.7883	12.7231	0.395287	0.792307
12.7887	12.7227	0.398131	0.738829
12.7892	12.7222	0.397219	0.692795
12.7897	12.7218	0.398558	0.662713
12.7902	12.7213	0.398454	0.638251
12.7906	12.7208	0.397463	0.620338
12.7911	12.7203	0.398956	0.616182
12.7916	12.7199	0.398543	0.616316
12.7921	12.7194	0.399533	0.621318
12.7925	12.7189	0.397691	0.622696
12.793	12.7185	0.395747	0.626828
12.7935	12.718	0.398922	0.629681
12.7939	12.7175	0.398199	0.630651
12.7944	12.7171	0.398178	0.629358
12.7949	12.7166	0.397009	0.622933
12.7954	12.7161	0.3964	0.610379
12.7958	12.7156	0.398063	0.601335
12.7963	12.7151	0.39772	0.590986
12.7968	12.7147	0.398255	0.581742
12.7972	12.7142	0.39677	0.568079
12.7977	12.7137	0.397755	0.557149
12.7982	12.7132	0.398516	0.548335
12.7987	12.7128	0.397273	0.538188
12.7991	12.7123	0.396717	0.528201
12.7996	12.7118	0.397793	0.515214
12.8001	12.7114	0.395306	0.500084
12.8006	12.7109	0.398284	0.486589
12.801	12.7104	0.396169	0.472502
12.8015	12.7099	0.39709	0.45787
12.802	12.7095	0.395695	0.441399
12.8024	12.709	0.396009	0.423602
12.8029	12.7085	0.397782	0.408444
12.8034	12.7081	0.396907	0.390938
12.8039	12.7076	0.39664	0.377087
12.8043	12.7071	0.395754	0.36014
12.8048	12.7066	0.396497	0.345069
12.8053	12.7062	0.396356	0.330976
12.8057	12.7057	0.39693	0.321199
12.8062	12.7052	0.395245	0.311005
12.8067	12.7047	0.395492	0.300778
12.8072	12.7042	0.396573	0.289982
12.8076	12.7038	0.396897	0.284749
12.8081	12.7033	0.39544	0.281555
12.8086	12.7028	0.394947	0.280582
12.8091	12.7024	0.39459	0.279199
12.8095	12.7019	0.394457	0.276298
12.81	12.7014	0.396749	0.281285
12.8105	12.7009	0.394669	0.285463
12.8109	12.7005	0.394036	0.288198
12.8114	12.7	0.393129	0.292322
12.8119	12.6995	0.393918	0.294911
12.8124	12.6991	0.397121	0.299592
12.8128	12.6986	0.394212	0.306058
12.8133	12.6981	0.394804	0.310549
12.8138	12.6977	0.395565	0.312984
12.8142	12.6972	0.394167	0.314108
12.8147	12.6967	0.395318	0.31834
12.8152	12.6962	0.394282	0.320572
12.8157	12.6958	0.39501	0.32055
12.8161	12.6953	0.393952	0.318465
12.8166	12.6948	0.392985	0.31723
12.8171	12.6943	0.393473	0.314394
12.8176	12.6939	0.393772	0.311843
12.818	12.6934	0.394341	0.307686
12.8185	12.6929	0.393159	0.303171
12.819	12.6925	0.393327	0.295581
12.8194	12.692	0.393028	0.289961
12.8199	12.6915	0.39334	0.285451
12.8204	12.6911	0.393854	0.281277
12.8209	12.6906	0.39137	0.275019
12.8213	12.6901	0.393122	0.270008
12.8218	12.6897	0.393645	0.27067
12.8223	12.6892	0.391573	0.27046
12.8227	12.6887	0.391597	0.270845
12.8232	12.6883	0.392463	0.271016
12.8237	12.6878	0.390652	0.272994
12.8242	12.6873	0.391515	0.276178
12.8246	12.6868	0.390604	0.28229
12.8251	12.6864	0.389794	0.285212
12.8256	12.6859	0.389524	0.289191
12.8261	12.6854	0.389599	0.291079
12.8265	12.6849	0.390724	0.296411
12.827	12.6844	0.389804	0.30154
12.8275	12.684	0.387955	0.306363
12.8279	12.6835	0.388609	0.306622
12.8284	12.683	0.388861	0.307784
12.8289	12.6826	0.388825	0.311605
12.8294	12.6821	0.390591	0.315924
12.8298	12.6816	0.389386	0.319379
12.8303	12.6812	0.387172	0.320388
12.8308	12.6807	0.389508	0.323615
12.8312	12.6802	0.39049	0.327601
12.8317	12.6797	0.390951	0.330735
12.8322	12.6793	0.389262	0.333726
12.8327	12.6788	0.39012	0.334288
12.8331	12.6783	0.388282	0.332755
12.8336	12.6779	0.38996	0.335585
12.8341	12.6774	0.390613	0.33735
12.8346	12.6769	0.389392	0.337652
12.835	12.6764	0.389034	0.336148
12.8355	12.6759	0.390693	0.335055
12.836	12.6755	0.390694	0.334043
12.8364	12.675	0.389834	0.335683
12.8369	12.6745	0.390295	0.335074
12.8374	12.674	0.388991	0.331985
12.8379	12.6735	0.388199	0.330114
12.8383	12.6731	0.39443	0.333081
12.8388	12.6726	0.393359	0.332825
12.8393	12.6721	0.389365	0.328396
12.8397	12.6717	0.389178	0.324329
12.8402	12.6712	0.389163	0.324061
12.8407	12.6707	0.387973	0.320382
12.8412	12.6703	0.389901	0.32113
12.8416	12.6698	0.388241	0.318885
12.8421	12.6693	0.389377	0.314975
12.8426	12.6689	0.389153	0.311813
12.8431	12.6684	0.390197	0.310196
12.8435	12.6679	0.389826	0.308881
12.844	12.6675	0.387727	0.30635
12.8445	12.667	0.389429	0.303148
12.8449	12.6665	0.388302	0.299026
12.8454	12.666	0.390285	0.29776
12.8459	12.6656	0.390239	0.29801
12.8464	12.6651	0.386506	0.293836
12.8468	12.6646	0.38714	0.290715
12.8473	12.6641	0.388839	0.287427
12.8478	12.6637	0.389484	0.286185
12.8482	12.6632	0.389472	0.285928
12.8487	12.6627	0.386504	0.284443
12.8492	12.6623	0.388193	0.280559
12.8497	12.6618	0.3877	0.276876
12.8501	12.6613	0.389214	0.27626
12.8506	12.6609	0.390013	0.27589
12.8511	12.6604	0.388746	0.273877
12.8516	12.6599	0.388507	0.272281
12.852	12.6594	0.388471	0.26966
12.8525	12.659	0.38791	0.268772
12.853	12.6585	0.390294	0.26985
12.8534	12.6581	0.386886	0.268547
12.8539	12.6576	0.387791	0.267035
12.8544	12.6571	0.388765	0.266152
12.8549	12.6566	0.390134	0.268286
12.8553	12.6561	0.389065	0.26892
12.8558	12.6557	0.387007	0.268853
12.8563	12.6552	0.389857	0.270709
12.8567	12.6547	0.390685	0.269563
12.8572	12.6542	0.389602	0.272427
12.8577	12.6537	0.390521	0.277439
12.8582	12.6533	0.390071	0.279546
12.8586	12.6528	0.390532	0.2798
12.8591	12.6523	0.389606	0.280763
12.8596	12.6519	0.390465	0.283893
12.8601	12.6514	0.391578	0.28719
12.8605	12.6509	0.389101	0.290163
12.861	12.6504	0.390544	0.289348
12.8615	12.65	0.391179	0.29181
12.8619	12.6495	0.390243	0.295387
12.8624	12.649	0.391959	0.299272
12.8629	12.6486	0.389706	0.30024
12.8634	12.6481	0.389904	0.302217
12.8638	12.6476	0.390482	0.303523
12.8643	12.6471	0.389451	0.30542
12.8648	12.6467	0.388227	0.307182
12.8652	12.6462	0.386773	0.30872
12.8657	12.6457	0.386932	0.308907
12.8662	12.6452	0.38708	0.30989
12.8667	12.6447	0.386115	0.309795
12.8671	12.6443	0.387892	0.313722
12.8676	12.6438	0.387926	0.315233
12.8681	12.6433	0.387605	0.314889
12.8686	12.6429	0.389491	0.315816
12.869	12.6424	0.390024	0.316701
12.8695	12.6419	0.391321	0.3195
12.87	12.6415	0.391006	0.318933
12.8704	12.641	0.391333	0.317843
12.8709	12.6405	0.391376	0.317516
12.8714	12.6401	0.391277	0.317807
12.8719	12.6396	0.393271	0.318569
12.8723	12.6391	0.390223	0.317818
12.8728	12.6387	0.3899	0.317196
12.8733	12.6382	0.391423	0.315777
12.8737	12.6377	0.390706	0.31523
12.8742	12.6373	0.391513	0.316566
12.8747	12.6368	0.390866	0.315438
12.8752	12.6363	0.38932	0.313762
12.8756	12.6358	0.390137	0.311376
12.8761	12.6353	0.391219	0.311583
12.8766	12.6349	0.391428	0.314667
12.8771	12.6344	0.389943	0.311989
12.8775	12.6339	0.390727	0.309814
12.878	12.6335	0.390865	0.310231
12.8785	12.633	0.391072	0.311157
12.8789	12.6325	0.391557	0.312549
12.8794	12.6321	0.389735	0.310929
12.8799	12.6316	0.391745	0.311023
12.8804	12.6311	0.390537	0.310017
12.8808	12.6306	0.390779	0.310826
12.8813	12.6302	0.390413	0.312963
12.8818	12.6297	0.390946	0.311678
12.8822	12.6292	0.388768	0.311159
12.8827	12.6288	0.389804	0.310524
12.8832	12.6283	0.391292	0.31304
12.8837	12.6278	0.390725	0.312812
12.8841	12.6273	0.388809	0.313376
12.8846	12.6269	0.390014	0.311813
12.8851	12.6264	0.390719	0.311407
12.8856	12.6259	0.390783	0.311375
12.886	12.6254	0.391251	0.311725
12.8865	12.6249	0.389636	0.310832
12.887	12.6245	0.389161	0.307459
12.8874	12.624	0.39035	0.307301
12.8879	12.6235	0.39049	0.308257
12.8884	12.623	0.389545	0.308143
12.8889	12.6226	0.390197	0.307825
12.8893	12.6221	0.390347	0.305712
12.8898	12.6217	0.390165	0.304212
12.8903	12.6212	0.390856	0.304081
12.8907	12.6207	0.391216	0.304891
12.8912	12.6202	0.390252	0.303621
12.8917	12.6197	0.390301	0.302416
12.8922	12.6193	0.391551	0.302819
12.8926	12.6188	0.389576	0.302539
12.8931	12.6183	0.389103	0.303458
12.8936	12.6179	0.389152	0.3032
12.8941	12.6174	0.38946	0.301578
12.8945	12.6169	0.388726	0.30138
12.895	12.6164	0.390021	0.302462
12.8955	12.616	0.390483	0.303743
12.8959	12.6155	0.389561	0.302476
12.8964	12.615	0.388176	0.299396
12.8969	12.6145	0.388951	0.300448
12.8974	12.6141	0.390338	0.302287
12.8978	12.6136	0.389331	0.301137
12.8983	12.6131	0.387911	0.301092
12.8988	12.6127	0.38993	0.298645
