# 1304     AichiSR QXAFS
# Start     : 8.9544
# End       : 9.0544
# Dir       : Backward
# Points    : 300
# ScanTime  : 1.01549
# Date      : 13.04.23 22:27
# Ring Cur. : 25.4[mA]
12.7557	12.6118	0.296817	0.227952
12.7562	12.6122	0.296073	0.22627
12.7566	12.6127	0.298636	0.226977
12.7571	12.6132	0.299696	0.230501
12.7576	12.6136	0.29874	0.230322
12.7581	12.6141	0.297649	0.232233
12.7585	12.6146	0.299112	0.231272
12.759	12.615	0.300842	0.232294
12.7595	12.6155	0.30064	0.232648
12.7599	12.616	0.301433	0.234815
12.7604	12.6165	0.299036	0.233788
12.7609	12.617	0.299211	0.23088
12.7614	12.6174	0.299313	0.231422
12.7618	12.6179	0.301434	0.232715
12.7623	12.6184	0.2984	0.233266
12.7628	12.6189	0.297311	0.233745
12.7632	12.6193	0.298492	0.232584
12.7637	12.6198	0.300028	0.232483
12.7642	12.6203	0.29979	0.232895
12.7647	12.6207	0.301354	0.235829
12.7651	12.6212	0.300123	0.235288
12.7656	12.6217	0.297621	0.232843
12.7661	12.6222	0.301638	0.235434
12.7666	12.6226	0.301714	0.23678
12.767	12.6231	0.300141	0.236493
12.7675	12.6236	0.296936	0.23598
12.768	12.624	0.299406	0.235636
12.7684	12.6245	0.300444	0.234798
12.7689	12.625	0.298023	0.23641
12.7694	12.6255	0.29936	0.239841
12.7699	12.6259	0.297283	0.237717
12.7703	12.6264	0.299191	0.237479
12.7708	12.6269	0.300525	0.240379
12.7713	12.6274	0.300591	0.240812
12.7717	12.6279	0.300503	0.241269
12.7722	12.6283	0.298734	0.242138
12.7727	12.6288	0.301491	0.240041
12.7732	12.6293	0.301199	0.240838
12.7736	12.6297	0.30018	0.241066
12.7741	12.6302	0.300364	0.242553
12.7746	12.6307	0.301018	0.240984
12.7751	12.6312	0.297563	0.238014
12.7755	12.6316	0.301908	0.240233
12.776	12.6321	0.299098	0.239888
12.7765	12.6326	0.300695	0.241418
12.7769	12.633	0.300824	0.239727
12.7774	12.6335	0.299084	0.239039
12.7779	12.634	0.301893	0.239291
12.7784	12.6344	0.301412	0.240247
12.7788	12.6349	0.3032	0.242944
12.7793	12.6354	0.299797	0.242917
12.7798	12.6359	0.301242	0.241434
12.7802	12.6363	0.302568	0.24216
12.7807	12.6368	0.301773	0.242429
12.7812	12.6373	0.300026	0.243318
12.7817	12.6378	0.301264	0.24401
12.7821	12.6382	0.298994	0.242652
12.7826	12.6387	0.301596	0.245544
12.7831	12.6392	0.304683	0.247624
12.7836	12.6396	0.303561	0.247307
12.784	12.6401	0.301363	0.246019
12.7845	12.6406	0.298974	0.243884
12.785	12.641	0.303867	0.246186
12.7854	12.6415	0.303177	0.248267
12.7859	12.642	0.302538	0.24846
12.7864	12.6424	0.301284	0.2476
12.7869	12.6429	0.302365	0.246603
12.7873	12.6434	0.304148	0.246198
12.7878	12.6438	0.301753	0.245291
12.7883	12.6443	0.301436	0.246502
12.7887	12.6448	0.300927	0.244918
12.7892	12.6453	0.297918	0.240947
12.7897	12.6457	0.302362	0.241375
12.7902	12.6462	0.302171	0.241642
12.7906	12.6467	0.298437	0.240158
12.7911	12.6472	0.300419	0.240407
12.7916	12.6477	0.301675	0.238375
12.7921	12.6481	0.304266	0.237381
12.7925	12.6486	0.302966	0.235976
12.793	12.6491	0.306511	0.237657
12.7935	12.6495	0.304763	0.235103
12.7939	12.65	0.303595	0.230394
12.7944	12.6505	0.305786	0.230561
12.7949	12.651	0.307488	0.230061
12.7954	12.6515	0.305528	0.228845
12.7958	12.6519	0.304678	0.225731
12.7963	12.6524	0.305681	0.223523
12.7968	12.6528	0.307816	0.222041
12.7972	12.6533	0.305619	0.22078
12.7977	12.6538	0.308449	0.220951
12.7982	12.6543	0.307141	0.220104
12.7987	12.6547	0.305407	0.215469
12.7991	12.6552	0.310356	0.216643
12.7996	12.6557	0.310047	0.215954
12.8001	12.6562	0.306578	0.21542
12.8006	12.6567	0.308976	0.21441
12.801	12.6571	0.308376	0.212998
12.8015	12.6576	0.309971	0.211328
12.802	12.6581	0.309811	0.213059
12.8024	12.6586	0.309745	0.214741
12.8029	12.659	0.307511	0.213098
12.8034	12.6595	0.307222	0.211595
12.8039	12.6599	0.310804	0.214069
12.8043	12.6604	0.310012	0.217789
12.8048	12.6609	0.3066	0.218435
12.8053	12.6614	0.311264	0.220212
12.8057	12.6618	0.309468	0.220899
12.8062	12.6623	0.311513	0.222335
12.8067	12.6628	0.31138	0.224942
12.8072	12.6632	0.313761	0.229516
12.8076	12.6637	0.311917	0.228574
12.8081	12.6642	0.31096	0.229588
12.8086	12.6646	0.313505	0.23176
12.8091	12.6651	0.313065	0.234586
12.8095	12.6656	0.311901	0.23676
12.81	12.6661	0.312125	0.238121
12.8105	12.6665	0.309845	0.238696
12.8109	12.667	0.311925	0.239914
12.8114	12.6675	0.313046	0.244427
12.8119	12.668	0.313102	0.246301
12.8124	12.6684	0.31056	0.246536
12.8128	12.6689	0.311791	0.247794
12.8133	12.6694	0.315918	0.252237
12.8138	12.6698	0.314511	0.25512
12.8142	12.6703	0.31368	0.257972
12.8147	12.6708	0.31291	0.258412
12.8152	12.6712	0.314638	0.25874
12.8157	12.6717	0.314468	0.259564
12.8161	12.6722	0.314622	0.26237
12.8166	12.6726	0.313794	0.267851
12.8171	12.6731	0.313717	0.266271
12.8176	12.6736	0.312486	0.264766
12.818	12.674	0.314348	0.266218
12.8185	12.6745	0.315067	0.269581
12.819	12.675	0.314594	0.270967
12.8194	12.6755	0.313328	0.270055
12.8199	12.676	0.314081	0.26951
12.8204	12.6765	0.316	0.270987
12.8209	12.6769	0.315973	0.274397
12.8213	12.6774	0.315707	0.274613
12.8218	12.6779	0.316645	0.274606
12.8223	12.6784	0.314155	0.271382
12.8227	12.6788	0.315828	0.270954
12.8232	12.6793	0.316989	0.272172
12.8237	12.6798	0.316539	0.271814
12.8242	12.6802	0.314327	0.268287
12.8246	12.6807	0.316314	0.266857
12.8251	12.6812	0.317694	0.263638
12.8256	12.6817	0.31573	0.262116
12.8261	12.6821	0.31761	0.262566
12.8265	12.6826	0.316453	0.25838
12.827	12.6831	0.31325	0.253142
12.8275	12.6835	0.316906	0.252804
12.8279	12.684	0.318548	0.252865
12.8284	12.6845	0.316034	0.249379
12.8289	12.685	0.316412	0.247411
12.8294	12.6854	0.315809	0.242419
12.8298	12.6859	0.317439	0.240161
12.8303	12.6864	0.315569	0.238392
12.8308	12.6869	0.318056	0.235732
12.8312	12.6874	0.316515	0.230613
12.8317	12.6878	0.316516	0.224577
12.8322	12.6883	0.320051	0.224641
12.8327	12.6888	0.317334	0.221095
12.8331	12.6892	0.319846	0.221273
12.8336	12.6897	0.319823	0.220125
12.8341	12.6902	0.319672	0.218335
12.8346	12.6906	0.318993	0.219512
12.835	12.6911	0.318579	0.22264
12.8355	12.6916	0.321163	0.229331
12.836	12.692	0.31932	0.229987
12.8364	12.6925	0.317389	0.231888
12.8369	12.693	0.32148	0.238006
12.8374	12.6934	0.319694	0.243936
12.8379	12.6939	0.316921	0.24807
12.8383	12.6944	0.318219	0.250918
12.8388	12.6948	0.318247	0.253346
12.8393	12.6953	0.318402	0.256509
12.8397	12.6958	0.317991	0.257683
12.8402	12.6963	0.318848	0.262735
12.8407	12.6968	0.31961	0.260322
12.8412	12.6972	0.318426	0.257348
12.8416	12.6977	0.321688	0.257521
12.8421	12.6982	0.319373	0.254829
12.8426	12.6986	0.317976	0.251629
12.8431	12.6991	0.318806	0.24831
12.8435	12.6996	0.319533	0.244738
12.844	12.7	0.317325	0.240265
12.8445	12.7005	0.317637	0.238327
12.8449	12.701	0.319771	0.23581
12.8454	12.7015	0.317461	0.230617
12.8459	12.7019	0.317248	0.225608
12.8464	12.7024	0.319824	0.22546
12.8468	12.7029	0.32067	0.226036
12.8473	12.7033	0.319509	0.226525
12.8478	12.7038	0.317259	0.225306
12.8482	12.7043	0.320564	0.230389
12.8487	12.7048	0.319491	0.232442
12.8492	12.7052	0.319083	0.239632
12.8497	12.7057	0.321116	0.248612
12.8501	12.7062	0.319984	0.25501
12.8506	12.7067	0.320394	0.261812
12.8511	12.7072	0.320615	0.273307
12.8516	12.7076	0.320517	0.286541
12.852	12.7081	0.319829	0.297297
12.8525	12.7086	0.320413	0.30982
12.853	12.7091	0.320637	0.322528
12.8534	12.7095	0.319182	0.335688
12.8539	12.71	0.320373	0.350764
12.8544	12.7105	0.323041	0.367588
12.8549	12.7109	0.322214	0.380032
12.8553	12.7114	0.319805	0.388896
12.8558	12.7119	0.324489	0.404853
12.8563	12.7124	0.322112	0.415224
12.8567	12.7128	0.320694	0.424297
12.8572	12.7133	0.319903	0.432137
12.8577	12.7137	0.32039	0.439136
12.8582	12.7142	0.319383	0.446644
12.8586	12.7147	0.320635	0.454259
12.8591	12.7152	0.320347	0.466342
12.8596	12.7157	0.319982	0.471058
12.8601	12.7161	0.319173	0.479309
12.8605	12.7166	0.321824	0.490823
12.861	12.7171	0.321308	0.501412
12.8615	12.7176	0.31982	0.507242
12.8619	12.718	0.32187	0.509859
12.8624	12.7185	0.322485	0.510743
12.8629	12.719	0.318917	0.507012
12.8634	12.7194	0.321125	0.50585
12.8638	12.7199	0.319793	0.501863
12.8643	12.7204	0.319304	0.496005
12.8648	12.7208	0.319508	0.494095
12.8652	12.7213	0.319765	0.496942
12.8657	12.7218	0.319927	0.503964
12.8662	12.7222	0.318889	0.516366
12.8667	12.7227	0.317965	0.538057
12.8671	12.7232	0.319471	0.570959
12.8676	12.7236	0.317656	0.609089
12.8681	12.7241	0.316903	0.660497
12.8686	12.7246	0.316754	0.717071
12.869	12.7251	0.316399	0.759254
12.8695	12.7255	0.314769	0.793577
12.87	12.726	0.317423	0.837547
12.8704	12.7265	0.319131	0.868707
12.8709	12.727	0.317155	0.884314
12.8714	12.7274	0.317314	0.892808
12.8719	12.7279	0.319789	0.909862
12.8723	12.7284	0.319068	0.912932
12.8728	12.7289	0.31827	0.922787
12.8733	12.7293	0.318793	0.933494
12.8737	12.7298	0.317717	0.934296
12.8742	12.7303	0.317828	0.932796
12.8747	12.7307	0.321657	0.943559
12.8752	12.7312	0.321246	0.952244
12.8756	12.7317	0.318217	0.950667
12.8761	12.7322	0.319927	0.952033
12.8766	12.7326	0.321245	0.958541
12.8771	12.7331	0.319788	0.954016
12.8775	12.7336	0.3211	0.958216
12.878	12.734	0.320259	0.968027
12.8785	12.7345	0.320431	0.958976
12.8789	12.735	0.318812	0.957267
12.8794	12.7355	0.320199	0.962698
12.8799	12.736	0.320874	0.964561
12.8804	12.7364	0.319052	0.967812
12.8808	12.7369	0.319922	0.964495
12.8813	12.7374	0.319893	0.966081
12.8818	12.7379	0.320607	0.968055
12.8822	12.7384	0.320987	0.974605
12.8827	12.7388	0.321366	0.979359
12.8832	12.7393	0.320126	0.971576
12.8837	12.7397	0.322625	0.973568
12.8841	12.7402	0.322746	0.976267
12.8846	12.7407	0.323277	0.977359
12.8851	12.7412	0.322436	0.980159
12.8856	12.7417	0.323039	0.977535
12.886	12.7421	0.322542	0.977386
12.8865	12.7426	0.320642	0.974395
12.887	12.743	0.320708	0.976279
12.8874	12.7435	0.321586	0.982707
12.8879	12.744	0.322369	0.975073
12.8884	12.7444	0.322633	0.976182
12.8889	12.7449	0.322441	0.982037
12.8893	12.7454	0.325574	0.986881
12.8898	12.7459	0.322774	0.986868
12.8903	12.7464	0.3226	0.983986
12.8907	12.7468	0.32597	0.98437
12.8912	12.7473	0.32408	0.985748
12.8917	12.7478	0.324194	0.984841
12.8922	12.7483	0.32281	0.987477
12.8926	12.7487	0.321303	0.981716
12.8931	12.7492	0.323178	0.979592
12.8936	12.7496	0.323234	0.984169
12.8941	12.7501	0.322523	0.982721
12.8945	12.7506	0.32382	0.988763
12.895	12.7511	0.323517	0.985942
12.8955	12.7515	0.324527	0.990825
12.8959	12.752	0.324061	0.985252
12.8964	12.7525	0.32312	0.987428
12.8969	12.7529	0.326143	0.995987
12.8974	12.7534	0.323662	0.984732
12.8978	12.7539	0.324389	0.984564
12.8983	12.7543	0.323977	0.986553
12.8988	12.7548	0.325413	0.988864
