# 1304     AichiSR QXAFS
# Start     : 8.9544
# End       : 9.0544
# Dir       : Backward
# Points    : 300
# ScanTime  : 1.01549
# Date      : 13.04.23 22:20
# Ring Cur. : 25.5[mA]
12.7557	12.6117	0.297977	0.227406
12.7562	12.6122	0.299178	0.227826
12.7566	12.6126	0.299672	0.230245
12.7571	12.6131	0.300469	0.232774
12.7576	12.6136	0.297406	0.229672
12.7581	12.614	0.298019	0.228569
12.7585	12.6145	0.301171	0.233792
12.759	12.615	0.300639	0.233751
12.7595	12.6155	0.299155	0.233586
12.7599	12.616	0.299917	0.233509
12.7604	12.6164	0.301488	0.233255
12.7609	12.6169	0.299792	0.23261
12.7614	12.6174	0.30104	0.234924
12.7618	12.6179	0.301789	0.23677
12.7623	12.6183	0.297136	0.231571
12.7628	12.6188	0.302285	0.232053
12.7632	12.6193	0.30258	0.23497
12.7637	12.6197	0.302592	0.234312
12.7642	12.6202	0.299289	0.234944
12.7647	12.6207	0.300465	0.23384
12.7651	12.6212	0.301961	0.234387
12.7656	12.6216	0.299942	0.23411
12.7661	12.6221	0.302295	0.237163
12.7666	12.6226	0.300427	0.237873
12.767	12.623	0.300506	0.234889
12.7675	12.6235	0.299116	0.234917
12.768	12.624	0.302786	0.238006
12.7684	12.6245	0.302542	0.238718
12.7689	12.6249	0.299356	0.238556
12.7694	12.6254	0.300217	0.23834
12.7699	12.6259	0.299688	0.238466
12.7703	12.6264	0.30111	0.239731
12.7708	12.6268	0.300698	0.241749
12.7713	12.6273	0.300779	0.242717
12.7717	12.6278	0.300021	0.240994
12.7722	12.6283	0.30186	0.24033
12.7727	12.6287	0.301843	0.24272
12.7732	12.6292	0.301808	0.244075
12.7736	12.6297	0.301895	0.243262
12.7741	12.6301	0.300282	0.240119
12.7746	12.6306	0.30297	0.239877
12.7751	12.6311	0.299839	0.240354
12.7755	12.6316	0.301938	0.242335
12.776	12.632	0.301337	0.241939
12.7765	12.6325	0.301255	0.239922
12.7769	12.633	0.300936	0.239084
12.7774	12.6334	0.301664	0.240184
12.7779	12.6339	0.302374	0.241566
12.7784	12.6344	0.30088	0.242417
12.7788	12.6348	0.300487	0.24118
12.7793	12.6353	0.303054	0.240089
12.7798	12.6358	0.30153	0.242519
12.7802	12.6363	0.302983	0.24544
12.7807	12.6368	0.300851	0.243745
12.7812	12.6372	0.301644	0.242425
12.7817	12.6377	0.30326	0.243751
12.7821	12.6382	0.30259	0.243921
12.7826	12.6386	0.302996	0.246063
12.7831	12.6391	0.299535	0.24629
12.7836	12.6396	0.300707	0.245928
12.784	12.64	0.303223	0.245758
12.7845	12.6405	0.300545	0.245035
12.785	12.641	0.302063	0.248064
12.7854	12.6415	0.30197	0.247844
12.7859	12.6419	0.29957	0.244386
12.7864	12.6424	0.301556	0.245242
12.7869	12.6428	0.303131	0.24856
12.7873	12.6433	0.302869	0.247467
12.7878	12.6438	0.300148	0.245929
12.7883	12.6442	0.30088	0.244553
12.7887	12.6447	0.30397	0.244821
12.7892	12.6452	0.29885	0.243046
12.7897	12.6457	0.300019	0.244337
12.7902	12.6462	0.302207	0.243259
12.7906	12.6466	0.297237	0.237976
12.7911	12.6471	0.303032	0.239803
12.7916	12.6476	0.307407	0.24304
12.7921	12.6481	0.303072	0.238662
12.7925	12.6486	0.301388	0.237751
12.793	12.649	0.30424	0.235261
12.7935	12.6495	0.306058	0.234695
12.7939	12.65	0.303194	0.232354
12.7944	12.6504	0.304764	0.233314
12.7949	12.6509	0.305268	0.231123
12.7954	12.6514	0.301162	0.224532
12.7958	12.6519	0.305504	0.224587
12.7963	12.6523	0.306419	0.22449
12.7968	12.6528	0.304029	0.222717
12.7972	12.6533	0.303701	0.220242
12.7977	12.6537	0.303368	0.217852
12.7982	12.6542	0.306518	0.217111
12.7987	12.6547	0.306792	0.215906
12.7991	12.6552	0.306145	0.216944
12.7996	12.6556	0.306502	0.214018
12.8001	12.6561	0.303997	0.211461
12.8006	12.6566	0.307756	0.211184
12.801	12.6571	0.307096	0.212592
12.8015	12.6576	0.307044	0.212944
12.802	12.658	0.30591	0.212157
12.8024	12.6585	0.304717	0.209821
12.8029	12.659	0.308321	0.212155
12.8034	12.6594	0.306218	0.213684
12.8039	12.6599	0.306676	0.215669
12.8043	12.6604	0.30768	0.2164
12.8048	12.6608	0.305954	0.215003
12.8053	12.6613	0.308259	0.218183
12.8057	12.6618	0.309893	0.22027
12.8062	12.6622	0.308561	0.222436
12.8067	12.6627	0.309161	0.224236
12.8072	12.6632	0.309161	0.225393
12.8076	12.6636	0.310685	0.226349
12.8081	12.6641	0.310801	0.229566
12.8086	12.6646	0.311941	0.232655
12.8091	12.6651	0.311823	0.232549
12.8095	12.6655	0.309704	0.233008
12.81	12.666	0.310916	0.234348
12.8105	12.6665	0.311945	0.238631
12.8109	12.667	0.310303	0.240578
12.8114	12.6674	0.309921	0.242119
12.8119	12.6679	0.309572	0.242923
12.8124	12.6684	0.311672	0.244125
12.8128	12.6689	0.311383	0.248344
12.8133	12.6693	0.312818	0.253941
12.8138	12.6698	0.312226	0.253204
12.8142	12.6702	0.310692	0.252199
12.8147	12.6707	0.313658	0.25681
12.8152	12.6712	0.314803	0.25965
12.8157	12.6717	0.312624	0.260795
12.8161	12.6721	0.312156	0.261841
12.8166	12.6726	0.312492	0.262762
12.8171	12.6731	0.313542	0.263144
12.8176	12.6735	0.312689	0.266039
12.818	12.674	0.313889	0.267942
12.8185	12.6745	0.31479	0.269105
12.819	12.675	0.312858	0.266428
12.8194	12.6754	0.313842	0.268103
12.8199	12.6759	0.312558	0.272493
12.8204	12.6764	0.315235	0.274387
12.8209	12.6769	0.314375	0.271798
12.8213	12.6774	0.313682	0.270335
12.8218	12.6778	0.316754	0.271601
12.8223	12.6783	0.315695	0.273112
12.8227	12.6788	0.314787	0.273005
12.8232	12.6792	0.315485	0.271859
12.8237	12.6797	0.314585	0.26832
12.8242	12.6802	0.314412	0.266851
12.8246	12.6807	0.315443	0.266074
12.8251	12.6811	0.315816	0.265019
12.8256	12.6816	0.31512	0.261786
12.8261	12.6821	0.315605	0.258991
12.8265	12.6825	0.315135	0.257048
12.827	12.683	0.314011	0.254621
12.8275	12.6835	0.314891	0.254825
12.8279	12.6839	0.315947	0.252131
12.8284	12.6844	0.314619	0.247421
12.8289	12.6849	0.316099	0.244705
12.8294	12.6854	0.316915	0.244598
12.8298	12.6859	0.316893	0.241251
12.8303	12.6863	0.31512	0.237917
12.8308	12.6868	0.318088	0.233003
12.8312	12.6873	0.3163	0.23004
12.8317	12.6878	0.316115	0.227186
12.8322	12.6882	0.317842	0.226107
12.8327	12.6887	0.317676	0.222394
12.8331	12.6892	0.318245	0.218945
12.8336	12.6896	0.319124	0.21976
12.8341	12.6901	0.318479	0.221495
12.8346	12.6906	0.316538	0.220578
12.835	12.691	0.319177	0.223102
12.8355	12.6915	0.320391	0.22557
12.836	12.692	0.31958	0.228611
12.8364	12.6924	0.318616	0.233626
12.8369	12.6929	0.320474	0.241005
12.8374	12.6934	0.319107	0.242133
12.8379	12.6938	0.317312	0.245083
12.8383	12.6943	0.318381	0.248506
12.8388	12.6948	0.317966	0.254253
12.8393	12.6953	0.316589	0.257218
12.8397	12.6957	0.31814	0.257804
12.8402	12.6962	0.319226	0.258993
12.8407	12.6967	0.318974	0.258
12.8412	12.6972	0.318058	0.257731
12.8416	12.6977	0.318636	0.258597
12.8421	12.6981	0.31938	0.255571
12.8426	12.6986	0.318288	0.251235
12.8431	12.699	0.320472	0.249996
12.8435	12.6995	0.319237	0.24764
12.844	12.7	0.317653	0.242309
12.8445	12.7004	0.318068	0.238077
12.8449	12.7009	0.321389	0.235219
12.8454	12.7014	0.318737	0.231333
12.8459	12.7019	0.317222	0.228307
12.8464	12.7023	0.319466	0.228628
12.8468	12.7028	0.319316	0.225125
12.8473	12.7033	0.319358	0.223788
12.8478	12.7037	0.319254	0.226172
12.8482	12.7042	0.320415	0.229932
12.8487	12.7047	0.319143	0.23497
12.8492	12.7052	0.320041	0.238279
12.8497	12.7057	0.321353	0.245587
12.8501	12.7062	0.32099	0.254238
12.8506	12.7066	0.319785	0.263415
12.8511	12.7071	0.32022	0.274716
12.8516	12.7076	0.319714	0.284236
12.852	12.7081	0.322133	0.295926
12.8525	12.7085	0.321311	0.309286
12.853	12.709	0.321465	0.323829
12.8534	12.7095	0.319938	0.336968
12.8539	12.7099	0.320852	0.350858
12.8544	12.7104	0.323992	0.363997
12.8549	12.7109	0.323296	0.37685
12.8553	12.7114	0.322967	0.38986
12.8558	12.7118	0.322323	0.404296
12.8563	12.7123	0.32247	0.412039
12.8567	12.7128	0.322549	0.421661
12.8572	12.7132	0.324397	0.433164
12.8577	12.7137	0.320689	0.440002
12.8582	12.7142	0.321069	0.448831
12.8586	12.7146	0.319357	0.452715
12.8591	12.7151	0.321224	0.462702
12.8596	12.7156	0.32245	0.472356
12.8601	12.7161	0.321244	0.481755
12.8605	12.7166	0.319969	0.492302
12.861	12.717	0.3222	0.49893
12.8615	12.7175	0.323633	0.506326
12.8619	12.718	0.322089	0.511918
12.8624	12.7185	0.321175	0.512493
12.8629	12.7189	0.321584	0.511466
12.8634	12.7194	0.320257	0.504665
12.8638	12.7198	0.322463	0.501136
12.8643	12.7203	0.320056	0.498202
12.8648	12.7208	0.32061	0.498554
12.8652	12.7213	0.31926	0.499751
12.8657	12.7217	0.318535	0.501846
12.8662	12.7222	0.319813	0.513052
12.8667	12.7226	0.32147	0.537657
12.8671	12.7231	0.321891	0.572074
12.8676	12.7236	0.319039	0.607306
12.8681	12.7241	0.316214	0.655138
12.8686	12.7245	0.319824	0.709071
12.869	12.725	0.317874	0.754198
12.8695	12.7255	0.317122	0.796922
12.87	12.726	0.317299	0.837172
12.8704	12.7264	0.318084	0.861212
12.8709	12.7269	0.319148	0.878886
12.8714	12.7274	0.319972	0.899107
12.8719	12.7279	0.320063	0.914906
12.8723	12.7283	0.319514	0.921428
12.8728	12.7288	0.318702	0.9215
12.8733	12.7293	0.32156	0.934624
12.8737	12.7297	0.321736	0.938326
12.8742	12.7302	0.320413	0.94208
12.8747	12.7307	0.320191	0.948674
12.8752	12.7312	0.321247	0.949851
12.8756	12.7316	0.321055	0.951602
12.8761	12.7321	0.320426	0.954073
12.8766	12.7326	0.321387	0.96323
12.8771	12.733	0.322312	0.962883
12.8775	12.7335	0.321599	0.958057
12.878	12.734	0.323818	0.962093
12.8785	12.7345	0.321754	0.965623
12.8789	12.7349	0.320136	0.964527
12.8794	12.7354	0.32161	0.966589
12.8799	12.7359	0.324361	0.969724
12.8804	12.7364	0.321872	0.96396
12.8808	12.7369	0.321169	0.968034
12.8813	12.7374	0.323759	0.977429
12.8818	12.7378	0.322457	0.976694
12.8822	12.7383	0.322268	0.968439
12.8827	12.7388	0.324752	0.97821
12.8832	12.7392	0.323771	0.978496
12.8837	12.7397	0.32018	0.974613
12.8841	12.7402	0.321885	0.97933
12.8846	12.7406	0.324554	0.984676
12.8851	12.7411	0.322628	0.978041
12.8856	12.7416	0.322705	0.978215
12.886	12.7421	0.323993	0.986273
12.8865	12.7425	0.32374	0.98385
12.887	12.743	0.321974	0.977846
12.8874	12.7435	0.32505	0.985459
12.8879	12.7439	0.322997	0.982143
12.8884	12.7444	0.321572	0.982281
12.8889	12.7449	0.324758	0.989496
12.8893	12.7454	0.324303	0.987593
12.8898	12.7458	0.325259	0.984252
12.8903	12.7463	0.324622	0.988161
12.8907	12.7468	0.325518	0.993066
12.8912	12.7473	0.325348	0.990172
12.8917	12.7477	0.32632	0.988686
12.8922	12.7482	0.32729	0.992858
12.8926	12.7487	0.324348	0.988762
12.8931	12.7491	0.321751	0.983855
12.8936	12.7496	0.325548	0.992463
12.8941	12.7501	0.325539	0.990113
12.8945	12.7505	0.325013	0.985944
12.895	12.751	0.324406	0.990915
12.8955	12.7515	0.325674	0.995173
12.8959	12.752	0.323072	0.99479
12.8964	12.7524	0.324619	0.990043
12.8969	12.7529	0.328078	0.998517
12.8974	12.7533	0.326577	0.990553
12.8978	12.7538	0.323242	0.990702
12.8983	12.7543	0.325079	0.993954
12.8988	12.7548	0.326155	0.992229
