# 1304     AichiSR QXAFS
# Start     : 8.9544
# End       : 9.0544
# Dir       : Backward
# Points    : 300
# ScanTime  : 1.01549
# Date      : 13.04.23 22:27
# Ring Cur. : 25.4[mA]
12.7557	12.6118	0.300261	0.22878
12.7562	12.6122	0.301251	0.231055
12.7566	12.6127	0.29867	0.23052
12.7571	12.6132	0.299759	0.230396
12.7576	12.6136	0.300315	0.229683
12.7581	12.6141	0.300485	0.232974
12.7585	12.6146	0.30399	0.236267
12.759	12.615	0.29955	0.234718
12.7595	12.6155	0.299981	0.231726
12.7599	12.616	0.301693	0.234098
12.7604	12.6165	0.302652	0.235059
12.7609	12.617	0.301001	0.235739
12.7614	12.6174	0.300603	0.236225
12.7618	12.6179	0.302337	0.235105
12.7623	12.6184	0.299295	0.232987
12.7628	12.6189	0.301876	0.234621
12.7632	12.6193	0.304106	0.237932
12.7637	12.6198	0.300674	0.236773
12.7642	12.6203	0.29957	0.233132
12.7647	12.6207	0.302136	0.235232
12.7651	12.6212	0.303983	0.236905
12.7656	12.6217	0.301876	0.237093
12.7661	12.6222	0.302944	0.238463
12.7666	12.6226	0.301754	0.235028
12.767	12.6231	0.300908	0.23586
12.7675	12.6236	0.302125	0.237253
12.768	12.624	0.303946	0.240799
12.7684	12.6245	0.30261	0.239653
12.7689	12.625	0.299262	0.236785
12.7694	12.6255	0.303927	0.239648
12.7699	12.6259	0.301927	0.240548
12.7703	12.6264	0.30345	0.243316
12.7708	12.6269	0.30238	0.243194
12.7713	12.6274	0.302983	0.241866
12.7717	12.6279	0.302424	0.23987
12.7722	12.6283	0.302877	0.242556
12.7727	12.6288	0.303218	0.244679
12.7732	12.6293	0.303581	0.244047
12.7736	12.6297	0.30257	0.242691
12.7741	12.6302	0.303878	0.242107
12.7746	12.6307	0.303819	0.241061
12.7751	12.6312	0.304014	0.244014
12.7755	12.6316	0.304133	0.24387
12.776	12.6321	0.301719	0.239975
12.7765	12.6326	0.303745	0.240435
12.7769	12.633	0.303199	0.240922
12.7774	12.6335	0.304649	0.244979
12.7779	12.634	0.303003	0.243984
12.7784	12.6344	0.30287	0.241483
12.7788	12.6349	0.304295	0.241727
12.7793	12.6354	0.30355	0.243285
12.7798	12.6359	0.304741	0.245468
12.7802	12.6363	0.304448	0.246976
12.7807	12.6368	0.304692	0.244537
12.7812	12.6373	0.303367	0.243785
12.7817	12.6378	0.305247	0.246119
12.7821	12.6382	0.30404	0.247812
12.7826	12.6387	0.304709	0.248574
12.7831	12.6392	0.303591	0.246131
12.7836	12.6396	0.305536	0.247755
12.784	12.6401	0.303777	0.247984
12.7845	12.6406	0.305041	0.249826
12.785	12.641	0.305041	0.251329
12.7854	12.6415	0.305373	0.249881
12.7859	12.642	0.305098	0.247392
12.7864	12.6424	0.304486	0.249154
12.7869	12.6429	0.305865	0.25149
12.7873	12.6434	0.3047	0.249454
12.7878	12.6438	0.303041	0.24597
12.7883	12.6443	0.305919	0.246836
12.7887	12.6448	0.302912	0.245153
12.7892	12.6453	0.301806	0.244531
12.7897	12.6457	0.302894	0.245732
12.7902	12.6462	0.303152	0.243089
12.7906	12.6467	0.304722	0.240794
12.7911	12.6472	0.303199	0.241205
12.7916	12.6477	0.305798	0.243256
12.7921	12.6481	0.305641	0.242007
12.7925	12.6486	0.304568	0.237312
12.793	12.6491	0.306521	0.237251
12.7935	12.6495	0.307032	0.236676
12.7939	12.65	0.305055	0.234045
12.7944	12.6505	0.305991	0.233051
12.7949	12.651	0.305846	0.230059
12.7954	12.6515	0.30433	0.226417
12.7958	12.6519	0.305132	0.226747
12.7963	12.6524	0.308359	0.227179
12.7968	12.6528	0.306541	0.22347
12.7972	12.6533	0.304822	0.21927
12.7977	12.6538	0.309178	0.219562
12.7982	12.6543	0.309417	0.218866
12.7987	12.6547	0.307371	0.217118
12.7991	12.6552	0.307429	0.216208
12.7996	12.6557	0.30837	0.214349
12.8001	12.6562	0.307256	0.211387
12.8006	12.6567	0.308395	0.213113
12.801	12.6571	0.307484	0.213675
12.8015	12.6576	0.307383	0.212017
12.802	12.6581	0.308107	0.21048
12.8024	12.6585	0.308797	0.211601
12.8029	12.659	0.307572	0.212357
12.8034	12.6595	0.306816	0.214616
12.8039	12.6599	0.308571	0.215751
12.8043	12.6604	0.307322	0.214767
12.8048	12.6609	0.307978	0.216318
12.8053	12.6614	0.309857	0.219565
12.8057	12.6618	0.309218	0.222025
12.8062	12.6623	0.307352	0.221876
12.8067	12.6628	0.308121	0.221466
12.8072	12.6632	0.311008	0.225016
12.8076	12.6637	0.308556	0.226105
12.8081	12.6642	0.308865	0.228853
12.8086	12.6646	0.307945	0.230392
12.8091	12.6651	0.308283	0.229994
12.8095	12.6656	0.311141	0.233625
12.81	12.6661	0.313488	0.237996
12.8105	12.6665	0.310677	0.238211
12.8109	12.667	0.30895	0.239176
12.8114	12.6675	0.307942	0.238997
12.8119	12.668	0.311453	0.242128
12.8124	12.6684	0.310022	0.24594
12.8128	12.6689	0.309116	0.247858
12.8133	12.6694	0.311155	0.251342
12.8138	12.6698	0.310396	0.250018
12.8142	12.6703	0.310289	0.250817
12.8147	12.6708	0.309451	0.254693
12.8152	12.6712	0.310914	0.25907
12.8157	12.6717	0.308283	0.257201
12.8161	12.6722	0.307392	0.256207
12.8166	12.6726	0.312133	0.26089
12.8171	12.6731	0.310212	0.262751
12.8176	12.6736	0.308665	0.263351
12.818	12.674	0.310544	0.265877
12.8185	12.6745	0.310307	0.264381
12.819	12.675	0.309881	0.264689
12.8194	12.6755	0.311003	0.266538
12.8199	12.676	0.309596	0.269374
12.8204	12.6765	0.310783	0.268455
12.8209	12.6769	0.308569	0.26787
12.8213	12.6774	0.311937	0.268782
12.8218	12.6779	0.310188	0.270738
12.8223	12.6784	0.312191	0.271678
12.8227	12.6788	0.31351	0.269461
12.8232	12.6793	0.312604	0.267289
12.8237	12.6798	0.312385	0.265654
12.8242	12.6802	0.312977	0.265438
12.8246	12.6807	0.313867	0.266224
12.8251	12.6812	0.312009	0.261809
12.8256	12.6817	0.311699	0.258064
12.8261	12.6821	0.313694	0.256468
12.8265	12.6826	0.313516	0.255229
12.827	12.6831	0.312191	0.254155
12.8275	12.6835	0.31186	0.250665
12.8279	12.684	0.313632	0.248274
12.8284	12.6845	0.313084	0.244828
12.8289	12.685	0.312661	0.243539
12.8294	12.6854	0.312854	0.24274
12.8298	12.6859	0.313736	0.237718
12.8303	12.6864	0.314313	0.234098
12.8308	12.6869	0.314986	0.23237
12.8312	12.6874	0.314862	0.229005
12.8317	12.6878	0.315502	0.226525
12.8322	12.6883	0.315929	0.223094
12.8327	12.6888	0.316408	0.219292
12.8331	12.6892	0.316634	0.218424
12.8336	12.6897	0.316547	0.218572
12.8341	12.6902	0.317083	0.220157
12.8346	12.6906	0.315794	0.218875
12.835	12.6911	0.315375	0.219623
12.8355	12.6916	0.317342	0.223302
12.836	12.692	0.316604	0.228255
12.8364	12.6925	0.315155	0.234666
12.8369	12.693	0.316553	0.237967
12.8374	12.6934	0.318188	0.240715
12.8379	12.6939	0.317487	0.245066
12.8383	12.6944	0.315955	0.250955
12.8388	12.6948	0.317039	0.255986
12.8393	12.6953	0.318258	0.256578
12.8397	12.6958	0.317595	0.257201
12.8402	12.6963	0.31868	0.258266
12.8407	12.6968	0.317379	0.257936
12.8412	12.6972	0.31739	0.258515
12.8416	12.6977	0.317878	0.256205
12.8421	12.6982	0.318385	0.252296
12.8426	12.6986	0.317307	0.248008
12.8431	12.6991	0.318132	0.248364
12.8435	12.6996	0.31798	0.24557
12.844	12.7	0.316556	0.238583
12.8445	12.7005	0.317676	0.235412
12.8449	12.701	0.319192	0.232916
12.8454	12.7015	0.317835	0.231241
12.8459	12.7019	0.315461	0.227552
12.8464	12.7024	0.318254	0.224814
12.8468	12.7029	0.319331	0.224088
12.8473	12.7033	0.319022	0.225175
12.8478	12.7038	0.317202	0.225838
12.8482	12.7043	0.31875	0.230795
12.8487	12.7048	0.319841	0.233562
12.8492	12.7052	0.319677	0.237768
12.8497	12.7057	0.320451	0.244866
12.8501	12.7062	0.320974	0.253918
12.8506	12.7067	0.318352	0.26348
12.8511	12.7072	0.319509	0.273458
12.8516	12.7076	0.321637	0.284709
12.852	12.7081	0.321528	0.296302
12.8525	12.7086	0.320831	0.31128
12.853	12.7091	0.320119	0.326749
12.8534	12.7095	0.322038	0.339135
12.8539	12.71	0.321782	0.350734
12.8544	12.7105	0.323509	0.366561
12.8549	12.7109	0.322882	0.379119
12.8553	12.7114	0.319601	0.390188
12.8558	12.7119	0.322023	0.401653
12.8563	12.7123	0.322794	0.414201
12.8567	12.7128	0.322351	0.421534
12.8572	12.7133	0.321574	0.431901
12.8577	12.7137	0.320862	0.442846
12.8582	12.7142	0.321134	0.447096
12.8586	12.7147	0.322327	0.457949
12.8591	12.7152	0.322248	0.466475
12.8596	12.7157	0.319998	0.474138
12.8601	12.7161	0.320749	0.485934
12.8605	12.7166	0.323177	0.493346
12.861	12.7171	0.323038	0.501382
12.8615	12.7176	0.321294	0.50645
12.8619	12.718	0.322084	0.513103
12.8624	12.7185	0.320506	0.512321
12.8629	12.719	0.320296	0.508547
12.8634	12.7194	0.322119	0.505373
12.8638	12.7199	0.32164	0.502879
12.8643	12.7204	0.320234	0.498131
12.8648	12.7208	0.319663	0.49598
12.8652	12.7213	0.320666	0.499736
12.8657	12.7218	0.321045	0.503669
12.8662	12.7222	0.32005	0.515855
12.8667	12.7227	0.321588	0.543523
12.8671	12.7232	0.320085	0.577452
12.8676	12.7236	0.319116	0.61307
12.8681	12.7241	0.317966	0.662813
12.8686	12.7246	0.320552	0.719152
12.869	12.7251	0.318445	0.764893
12.8695	12.7255	0.315311	0.803272
12.87	12.726	0.317056	0.836128
12.8704	12.7265	0.319464	0.865519
12.8709	12.727	0.315992	0.882083
12.8714	12.7274	0.318919	0.898663
12.8719	12.7279	0.319968	0.916819
12.8723	12.7284	0.319974	0.918718
12.8728	12.7289	0.320169	0.926122
12.8733	12.7293	0.320228	0.93683
12.8737	12.7298	0.322332	0.943046
12.8742	12.7303	0.32076	0.946069
12.8747	12.7307	0.320777	0.949383
12.8752	12.7312	0.323872	0.951955
12.8756	12.7317	0.32235	0.954849
12.8761	12.7322	0.322181	0.957026
12.8766	12.7326	0.322146	0.965836
12.8771	12.7331	0.319446	0.956052
12.8775	12.7336	0.320812	0.959662
12.878	12.734	0.320367	0.962615
12.8785	12.7345	0.321445	0.968592
12.8789	12.735	0.319908	0.963093
12.8794	12.7355	0.321091	0.964096
12.8799	12.736	0.322558	0.970531
12.8804	12.7364	0.322472	0.970102
12.8808	12.7369	0.322726	0.972689
12.8813	12.7374	0.324047	0.979413
12.8818	12.7379	0.32395	0.97584
12.8822	12.7384	0.323902	0.972727
12.8827	12.7388	0.323982	0.977663
12.8832	12.7393	0.324288	0.979596
12.8837	12.7397	0.322572	0.978067
12.8841	12.7402	0.322233	0.97645
12.8846	12.7407	0.324493	0.976991
12.8851	12.7412	0.323437	0.973806
12.8856	12.7416	0.322148	0.977823
12.886	12.7421	0.321493	0.982544
12.8865	12.7426	0.323031	0.982076
12.887	12.743	0.32448	0.982501
12.8874	12.7435	0.324514	0.984479
12.8879	12.744	0.324471	0.988118
12.8884	12.7445	0.324633	0.985763
12.8889	12.7449	0.325713	0.988735
12.8893	12.7454	0.326708	0.99109
12.8898	12.7459	0.324547	0.987508
12.8903	12.7464	0.325581	0.988009
12.8907	12.7468	0.325228	0.993682
12.8912	12.7473	0.324303	0.985428
12.8917	12.7478	0.325068	0.983637
12.8922	12.7483	0.32623	0.990804
12.8926	12.7487	0.324498	0.988081
12.8931	12.7492	0.322678	0.986044
12.8936	12.7496	0.326719	0.991956
12.8941	12.7501	0.328277	0.995216
12.8945	12.7506	0.324084	0.98731
12.895	12.7511	0.324695	0.992629
12.8955	12.7515	0.326087	0.99889
12.8959	12.752	0.32565	0.991686
12.8964	12.7525	0.327021	0.991983
12.8969	12.7529	0.327397	0.991119
12.8974	12.7534	0.325382	0.992032
12.8978	12.7539	0.323909	0.987403
12.8983	12.7543	0.324787	0.992572
12.8988	12.7548	0.326619	0.992007
