# 1304     AichiSR QXAFS
# Start     : 8.9544
# End       : 9.0544
# Dir       : Backward
# Points    : 300
# ScanTime  : 1.01549
# Date      : 13.04.23 22:21
# Ring Cur. : 25.5[mA]
12.7557	12.6117	0.297049	0.228514
12.7562	12.6122	0.297072	0.226032
12.7566	12.6127	0.297926	0.228013
12.7571	12.6131	0.299942	0.230928
12.7576	12.6136	0.298844	0.232079
12.7581	12.6141	0.297063	0.231434
12.7585	12.6145	0.299949	0.231779
12.759	12.615	0.300535	0.232198
12.7595	12.6155	0.301631	0.234356
12.7599	12.616	0.30239	0.236126
12.7604	12.6164	0.299827	0.235166
12.7609	12.6169	0.300798	0.234137
12.7614	12.6174	0.302684	0.234626
12.7618	12.6179	0.303056	0.236415
12.7623	12.6183	0.300196	0.23602
12.7628	12.6188	0.301266	0.237433
12.7632	12.6193	0.301579	0.235596
12.7637	12.6197	0.303172	0.234376
12.7642	12.6202	0.301313	0.234303
12.7647	12.6207	0.304811	0.239227
12.7651	12.6212	0.302698	0.235844
12.7656	12.6216	0.30019	0.23376
12.7661	12.6221	0.304822	0.238628
12.7666	12.6226	0.304214	0.239102
12.767	12.623	0.304438	0.24037
12.7675	12.6235	0.302826	0.24046
12.768	12.624	0.302762	0.239656
12.7684	12.6245	0.305319	0.239135
12.7689	12.6249	0.303927	0.241472
12.7694	12.6254	0.305339	0.243446
12.7699	12.6259	0.302685	0.242596
12.7703	12.6264	0.303562	0.241941
12.7708	12.6269	0.305227	0.241773
12.7713	12.6273	0.306425	0.24483
12.7717	12.6278	0.304375	0.245523
12.7722	12.6283	0.305056	0.245615
12.7727	12.6288	0.30383	0.243384
12.7732	12.6292	0.305551	0.243636
12.7736	12.6297	0.305827	0.245883
12.7741	12.6301	0.306473	0.247456
12.7746	12.6306	0.305019	0.245654
12.7751	12.6311	0.303599	0.243317
12.7755	12.6316	0.307609	0.244347
12.776	12.6321	0.306428	0.245166
12.7765	12.6325	0.306482	0.245478
12.7769	12.633	0.306229	0.246455
12.7774	12.6334	0.305991	0.244866
12.7779	12.6339	0.308098	0.244016
12.7784	12.6344	0.308394	0.245508
12.7788	12.6348	0.308884	0.247757
12.7793	12.6353	0.306404	0.246757
12.7798	12.6358	0.30767	0.245737
12.7802	12.6363	0.309325	0.246945
12.7807	12.6368	0.308379	0.247592
12.7812	12.6372	0.306944	0.249238
12.7817	12.6377	0.307575	0.248201
12.7821	12.6382	0.308784	0.249806
12.7826	12.6386	0.310759	0.250384
12.7831	12.6391	0.309136	0.251339
12.7836	12.6396	0.310087	0.253795
12.784	12.64	0.307423	0.252109
12.7845	12.6405	0.307238	0.250204
12.785	12.641	0.310435	0.252882
12.7854	12.6415	0.311023	0.254044
12.7859	12.6419	0.309042	0.253561
12.7864	12.6424	0.309364	0.254302
12.7869	12.6428	0.308826	0.25227
12.7873	12.6433	0.310239	0.251606
12.7878	12.6438	0.309192	0.252108
12.7883	12.6442	0.309281	0.252588
12.7887	12.6447	0.308734	0.251489
12.7892	12.6452	0.304535	0.246599
12.7897	12.6457	0.310829	0.249533
12.7902	12.6462	0.309665	0.248791
12.7906	12.6466	0.30665	0.248394
12.7911	12.6471	0.308352	0.247763
12.7916	12.6476	0.310633	0.246075
12.7921	12.6481	0.312727	0.243142
12.7925	12.6486	0.310988	0.241758
12.793	12.649	0.31288	0.244346
12.7935	12.6495	0.310567	0.240376
12.7939	12.65	0.309191	0.235519
12.7944	12.6504	0.313321	0.237351
12.7949	12.6509	0.314784	0.2374
12.7954	12.6514	0.31219	0.234193
12.7958	12.6519	0.312322	0.231876
12.7963	12.6523	0.313076	0.229481
12.7968	12.6528	0.315649	0.229171
12.7972	12.6533	0.314238	0.226741
12.7977	12.6537	0.315233	0.227167
12.7982	12.6542	0.313497	0.224078
12.7987	12.6547	0.312147	0.221155
12.7991	12.6552	0.315719	0.220799
12.7996	12.6556	0.315787	0.220238
12.8001	12.6561	0.313709	0.218829
12.8006	12.6566	0.31406	0.218312
12.801	12.6571	0.314648	0.216341
12.8015	12.6576	0.316684	0.216822
12.802	12.658	0.316155	0.218551
12.8024	12.6585	0.315876	0.219035
12.8029	12.659	0.313697	0.218293
12.8034	12.6594	0.314262	0.21728
12.8039	12.6599	0.318912	0.220305
12.8043	12.6604	0.316712	0.221123
12.8048	12.6608	0.31499	0.223497
12.8053	12.6613	0.31698	0.224528
12.8057	12.6618	0.314629	0.223782
12.8062	12.6623	0.31715	0.22652
12.8067	12.6627	0.317417	0.229508
12.8072	12.6632	0.31763	0.232631
12.8076	12.6636	0.315193	0.231925
12.8081	12.6641	0.315555	0.23304
12.8086	12.6646	0.319068	0.235872
12.8091	12.6651	0.319028	0.239084
12.8095	12.6655	0.317851	0.240113
12.81	12.666	0.317154	0.242072
12.8105	12.6665	0.315288	0.241458
12.8109	12.667	0.317418	0.242838
12.8114	12.6674	0.316761	0.246825
12.8119	12.6679	0.319327	0.251459
12.8124	12.6684	0.317021	0.250883
12.8128	12.6689	0.317538	0.25038
12.8133	12.6693	0.318947	0.253532
12.8138	12.6698	0.318858	0.257916
12.8142	12.6702	0.318161	0.2607
12.8147	12.6707	0.317884	0.261185
12.8152	12.6712	0.317918	0.262463
12.8157	12.6717	0.318593	0.264126
12.8161	12.6721	0.319422	0.266943
12.8166	12.6726	0.319435	0.270848
12.8171	12.6731	0.31805	0.270338
12.8176	12.6735	0.315742	0.267571
12.818	12.674	0.318033	0.269792
12.8185	12.6745	0.318624	0.273348
12.819	12.675	0.318733	0.27541
12.8194	12.6754	0.317091	0.273547
12.8199	12.6759	0.31776	0.273406
12.8204	12.6764	0.319319	0.274027
12.8209	12.6769	0.3204	0.276151
12.8213	12.6774	0.321426	0.279008
12.8218	12.6778	0.319241	0.276335
12.8223	12.6783	0.318629	0.273837
12.8227	12.6788	0.320121	0.27432
12.8232	12.6792	0.320252	0.275205
12.8237	12.6797	0.319454	0.275068
12.8242	12.6802	0.318824	0.271754
12.8246	12.6807	0.317339	0.268087
12.8251	12.6811	0.319846	0.267122
12.8256	12.6816	0.317974	0.266341
12.8261	12.6821	0.319889	0.264308
12.8265	12.6825	0.32091	0.261501
12.827	12.683	0.315451	0.256266
12.8275	12.6835	0.320325	0.254842
12.8279	12.684	0.321372	0.254037
12.8284	12.6844	0.319063	0.25237
12.8289	12.6849	0.318124	0.246902
12.8294	12.6854	0.3177	0.244704
12.8298	12.6859	0.320849	0.241976
12.8303	12.6863	0.318258	0.239245
12.8308	12.6868	0.320779	0.237489
12.8312	12.6873	0.318913	0.233169
12.8317	12.6878	0.319458	0.227062
12.8322	12.6883	0.321669	0.225513
12.8327	12.6887	0.320639	0.224315
12.8331	12.6892	0.320101	0.223229
12.8336	12.6896	0.321688	0.221418
12.8341	12.6901	0.322126	0.221506
12.8346	12.6906	0.321244	0.220827
12.835	12.6911	0.320262	0.223226
12.8355	12.6915	0.321552	0.230645
12.836	12.692	0.320777	0.229865
12.8364	12.6925	0.318748	0.232018
12.8369	12.6929	0.321459	0.238806
12.8374	12.6934	0.320762	0.24528
12.8379	12.6938	0.318809	0.249651
12.8383	12.6943	0.320468	0.253288
12.8388	12.6948	0.321894	0.255613
12.8393	12.6953	0.322223	0.257501
12.8397	12.6958	0.319403	0.260004
12.8402	12.6962	0.322014	0.263845
12.8407	12.6967	0.320601	0.260527
12.8412	12.6972	0.320422	0.258025
12.8416	12.6977	0.321009	0.25847
12.8421	12.6981	0.320636	0.256597
12.8426	12.6986	0.317853	0.254108
12.8431	12.6991	0.31899	0.249779
12.8435	12.6995	0.320157	0.245983
12.844	12.7	0.318715	0.241292
12.8445	12.7004	0.320019	0.238468
12.8449	12.7009	0.319313	0.237177
12.8454	12.7014	0.319586	0.230886
12.8459	12.7019	0.319453	0.227518
12.8464	12.7023	0.323101	0.229285
12.8468	12.7028	0.322237	0.226897
12.8473	12.7033	0.318535	0.226221
12.8478	12.7037	0.320889	0.227602
12.8482	12.7042	0.322042	0.22967
12.8487	12.7047	0.321426	0.233935
12.8492	12.7052	0.320568	0.240254
12.8497	12.7057	0.320719	0.248557
12.8501	12.7062	0.320172	0.254459
12.8506	12.7066	0.321562	0.261959
12.8511	12.7071	0.32177	0.273393
12.8516	12.7076	0.32137	0.286423
12.852	12.7081	0.320804	0.299291
12.8525	12.7085	0.322887	0.311991
12.853	12.709	0.322607	0.324286
12.8534	12.7095	0.32244	0.338132
12.8539	12.7099	0.324411	0.355695
12.8544	12.7104	0.322848	0.367678
12.8549	12.7109	0.321151	0.378814
12.8553	12.7114	0.322491	0.390093
12.8558	12.7118	0.323765	0.402818
12.8563	12.7123	0.322233	0.413242
12.8567	12.7128	0.321734	0.423684
12.8572	12.7132	0.321533	0.43196
12.8577	12.7137	0.320937	0.441605
12.8582	12.7142	0.322797	0.449456
12.8586	12.7146	0.322188	0.45885
12.8591	12.7151	0.322704	0.467756
12.8596	12.7156	0.322283	0.475163
12.8601	12.7161	0.325006	0.483234
12.8605	12.7166	0.323221	0.492178
12.861	12.717	0.324526	0.501045
12.8615	12.7175	0.322919	0.510236
12.8619	12.718	0.322117	0.510052
12.8624	12.7185	0.321536	0.511232
12.8629	12.7189	0.322338	0.508111
12.8634	12.7194	0.32213	0.508298
12.8638	12.7198	0.321321	0.50488
12.8643	12.7203	0.32061	0.49767
12.8648	12.7208	0.321115	0.495055
12.8652	12.7213	0.32187	0.49951
12.8657	12.7217	0.322681	0.508575
12.8662	12.7222	0.318327	0.518506
12.8667	12.7227	0.318377	0.536774
12.8671	12.7231	0.322906	0.571879
12.8676	12.7236	0.319468	0.610575
12.8681	12.7241	0.320391	0.661471
12.8686	12.7245	0.318296	0.714403
12.869	12.725	0.316543	0.756135
12.8695	12.7255	0.315426	0.792531
12.87	12.726	0.318969	0.83777
12.8704	12.7264	0.320361	0.868343
12.8709	12.7269	0.317124	0.882751
12.8714	12.7274	0.318636	0.895861
12.8719	12.7279	0.321003	0.914225
12.8723	12.7283	0.320322	0.915366
12.8728	12.7288	0.321379	0.93111
12.8733	12.7293	0.321527	0.942719
12.8737	12.7297	0.318597	0.937228
12.8742	12.7302	0.318588	0.938379
12.8747	12.7307	0.320862	0.947843
12.8752	12.7312	0.322483	0.951715
12.8756	12.7317	0.319922	0.951032
12.8761	12.7321	0.319607	0.949941
12.8766	12.7326	0.321593	0.954911
12.8771	12.733	0.320104	0.95635
12.8775	12.7335	0.320138	0.957699
12.878	12.734	0.321773	0.965792
12.8785	12.7345	0.320534	0.960685
12.8789	12.7349	0.321883	0.963352
12.8794	12.7354	0.321146	0.964119
12.8799	12.7359	0.322799	0.968107
12.8804	12.7364	0.320994	0.97093
12.8808	12.7369	0.321235	0.969398
12.8813	12.7374	0.321968	0.968898
12.8818	12.7378	0.320905	0.967648
12.8822	12.7383	0.322381	0.973921
12.8827	12.7388	0.32261	0.978247
12.8832	12.7392	0.320279	0.970955
12.8837	12.7397	0.320722	0.96622
12.8841	12.7402	0.323065	0.97211
12.8846	12.7406	0.322816	0.978456
12.8851	12.7411	0.321342	0.978534
12.8856	12.7416	0.32148	0.976142
12.886	12.7421	0.323379	0.978388
12.8865	12.7425	0.321783	0.972617
12.887	12.743	0.323007	0.976336
12.8874	12.7435	0.323901	0.989071
12.8879	12.7439	0.322297	0.981684
12.8884	12.7444	0.323914	0.982479
12.8889	12.7449	0.326191	0.989452
12.8893	12.7454	0.323684	0.985941
12.8898	12.7458	0.323494	0.988604
12.8903	12.7463	0.323768	0.983922
12.8907	12.7468	0.323976	0.982221
12.8912	12.7473	0.322127	0.980628
12.8917	12.7477	0.323743	0.986787
12.8922	12.7482	0.325187	0.989324
12.8926	12.7487	0.32283	0.986041
12.8931	12.7491	0.324912	0.984023
12.8936	12.7496	0.32315	0.987344
12.8941	12.7501	0.324521	0.988516
12.8945	12.7505	0.323535	0.990005
12.895	12.751	0.323727	0.991503
12.8955	12.7515	0.326148	0.990862
12.8959	12.752	0.3223	0.982209
12.8964	12.7524	0.322607	0.984715
12.8969	12.7529	0.326478	0.996415
12.8974	12.7533	0.324162	0.989087
12.8978	12.7538	0.323581	0.98437
12.8983	12.7543	0.323357	0.98797
12.8988	12.7548	0.325673	0.993318
