# 1304     AichiSR QXAFS
# Start     : 8.9544
# End       : 9.0544
# Dir       : Backward
# Points    : 300
# ScanTime  : 1.01549
# Date      : 13.04.23 22:25
# Ring Cur. : 25.4[mA]
12.7557	12.6118	0.302864	0.229869
12.7562	12.6122	0.302355	0.231458
12.7566	12.6127	0.300566	0.23277
12.7571	12.6131	0.300685	0.231703
12.7576	12.6136	0.301335	0.23186
12.7581	12.6141	0.303114	0.232321
12.7585	12.6146	0.302943	0.235279
12.759	12.615	0.301635	0.235861
12.7595	12.6155	0.30113	0.235381
12.7599	12.616	0.30164	0.234019
12.7604	12.6165	0.303528	0.235972
12.7609	12.6169	0.303395	0.236962
12.7614	12.6174	0.30087	0.235778
12.7618	12.6179	0.301519	0.23604
12.7623	12.6184	0.301942	0.234852
12.7628	12.6188	0.305272	0.236942
12.7632	12.6193	0.304439	0.237827
12.7637	12.6198	0.301572	0.237331
12.7642	12.6202	0.299351	0.235095
12.7647	12.6207	0.303582	0.234737
12.7651	12.6212	0.305848	0.236972
12.7656	12.6217	0.30276	0.237157
12.7661	12.6221	0.303039	0.237432
12.7666	12.6226	0.301633	0.237608
12.767	12.6231	0.301481	0.236479
12.7675	12.6235	0.30294	0.236993
12.768	12.624	0.304334	0.239866
12.7684	12.6245	0.300997	0.240057
12.7689	12.625	0.299648	0.23813
12.7694	12.6255	0.303324	0.24032
12.7699	12.6259	0.30391	0.240791
12.7703	12.6264	0.302918	0.243668
12.7708	12.6269	0.301347	0.242611
12.7713	12.6274	0.303561	0.243343
12.7717	12.6278	0.301351	0.240732
12.7722	12.6283	0.303168	0.243315
12.7727	12.6288	0.304048	0.244982
12.7732	12.6292	0.301631	0.243066
12.7736	12.6297	0.30147	0.24211
12.7741	12.6302	0.302553	0.242022
12.7746	12.6307	0.302859	0.241217
12.7751	12.6311	0.301795	0.242669
12.7755	12.6316	0.303164	0.24356
12.776	12.6321	0.303217	0.242035
12.7765	12.6325	0.303814	0.241681
12.7769	12.633	0.305143	0.242973
12.7774	12.6335	0.305444	0.243926
12.7779	12.6339	0.304815	0.245071
12.7784	12.6344	0.304983	0.243102
12.7788	12.6349	0.306175	0.242124
12.7793	12.6354	0.30672	0.245255
12.7798	12.6358	0.306069	0.246353
12.7802	12.6363	0.303438	0.245708
12.7807	12.6368	0.302787	0.244346
12.7812	12.6373	0.302878	0.244284
12.7817	12.6377	0.304361	0.246565
12.7821	12.6382	0.304735	0.247949
12.7826	12.6387	0.303491	0.247333
12.7831	12.6391	0.303502	0.247096
12.7836	12.6396	0.305253	0.247426
12.784	12.6401	0.305702	0.24921
12.7845	12.6405	0.303885	0.249755
12.785	12.641	0.305974	0.252711
12.7854	12.6415	0.305574	0.249885
12.7859	12.642	0.304042	0.247497
12.7864	12.6424	0.305059	0.248915
12.7869	12.6429	0.306808	0.250624
12.7873	12.6433	0.304394	0.249704
12.7878	12.6438	0.302043	0.245308
12.7883	12.6443	0.303576	0.246409
12.7887	12.6448	0.304232	0.246481
12.7892	12.6452	0.303514	0.245239
12.7897	12.6457	0.304303	0.245811
12.7902	12.6462	0.305198	0.243371
12.7906	12.6467	0.305509	0.243437
12.7911	12.6472	0.306281	0.243715
12.7916	12.6476	0.307013	0.244816
12.7921	12.6481	0.306965	0.243398
12.7925	12.6486	0.307384	0.239607
12.793	12.6491	0.308193	0.23906
12.7935	12.6495	0.308521	0.236935
12.7939	12.65	0.30763	0.235904
12.7944	12.6505	0.308456	0.234976
12.7949	12.6509	0.308895	0.232221
12.7954	12.6514	0.308547	0.229714
12.7958	12.6519	0.310693	0.229475
12.7963	12.6524	0.312752	0.228745
12.7968	12.6528	0.310929	0.226411
12.7972	12.6533	0.310075	0.222814
12.7977	12.6538	0.312804	0.222565
12.7982	12.6542	0.31364	0.223506
12.7987	12.6547	0.311423	0.220856
12.7991	12.6552	0.311271	0.219456
12.7996	12.6557	0.312025	0.217472
12.8001	12.6562	0.312745	0.215813
12.8006	12.6566	0.310469	0.21522
12.801	12.6571	0.313009	0.216996
12.8015	12.6576	0.31203	0.216768
12.802	12.6581	0.31073	0.213225
12.8024	12.6585	0.31305	0.215467
12.8029	12.659	0.312937	0.21765
12.8034	12.6595	0.312904	0.218715
12.8039	12.6599	0.312815	0.219252
12.8043	12.6604	0.313918	0.220055
12.8048	12.6609	0.313607	0.220872
12.8053	12.6613	0.314507	0.223311
12.8057	12.6618	0.314776	0.226459
12.8062	12.6623	0.314548	0.226749
12.8067	12.6627	0.313816	0.226809
12.8072	12.6632	0.317681	0.230493
12.8076	12.6637	0.314827	0.231614
12.8081	12.6641	0.313615	0.233218
12.8086	12.6646	0.314015	0.234564
12.8091	12.6651	0.316207	0.236732
12.8095	12.6656	0.316198	0.235732
12.81	12.666	0.31566	0.241082
12.8105	12.6665	0.317698	0.24402
12.8109	12.667	0.31574	0.243684
12.8114	12.6675	0.316783	0.244868
12.8119	12.668	0.319011	0.249358
12.8124	12.6684	0.316568	0.251332
12.8128	12.6689	0.315223	0.25219
12.8133	12.6693	0.318514	0.256563
12.8138	12.6698	0.316125	0.255646
12.8142	12.6703	0.317685	0.256762
12.8147	12.6707	0.317217	0.260635
12.8152	12.6712	0.317634	0.264665
12.8157	12.6717	0.314869	0.262359
12.8161	12.6722	0.316189	0.263946
12.8166	12.6726	0.320778	0.26779
12.8171	12.6731	0.31867	0.269047
12.8176	12.6736	0.317205	0.271799
12.818	12.674	0.318946	0.271696
12.8185	12.6745	0.317553	0.271665
12.819	12.675	0.319943	0.271156
12.8194	12.6755	0.318439	0.274125
12.8199	12.676	0.319525	0.275781
12.8204	12.6764	0.317858	0.275142
12.8209	12.6769	0.318192	0.273576
12.8213	12.6774	0.32009	0.275585
12.8218	12.6779	0.319481	0.27618
12.8223	12.6783	0.317327	0.276081
12.8227	12.6788	0.31885	0.27568
12.8232	12.6793	0.319437	0.274273
12.8237	12.6797	0.320511	0.27152
12.8242	12.6802	0.321253	0.27305
12.8246	12.6807	0.321359	0.272123
12.8251	12.6812	0.319727	0.267055
12.8256	12.6816	0.318915	0.264328
12.8261	12.6821	0.322915	0.264315
12.8265	12.6826	0.320775	0.261864
12.827	12.683	0.318014	0.259064
12.8275	12.6835	0.319172	0.255304
12.8279	12.684	0.317422	0.251764
12.8284	12.6845	0.31899	0.24985
12.8289	12.6849	0.318251	0.247921
12.8294	12.6854	0.320502	0.247131
12.8298	12.6859	0.318838	0.241817
12.8303	12.6864	0.318442	0.237667
12.8308	12.6869	0.323541	0.237275
12.8312	12.6873	0.321466	0.234188
12.8317	12.6878	0.322297	0.232467
12.8322	12.6883	0.32326	0.227652
12.8327	12.6887	0.323239	0.224631
12.8331	12.6892	0.322191	0.221548
12.8336	12.6897	0.323284	0.224125
12.8341	12.6901	0.321663	0.223361
12.8346	12.6906	0.317849	0.221965
12.835	12.6911	0.320154	0.222246
12.8355	12.6916	0.322712	0.227636
12.836	12.692	0.323263	0.233218
12.8364	12.6925	0.320716	0.238296
12.8369	12.6929	0.323458	0.241224
12.8374	12.6934	0.322161	0.244767
12.8379	12.6939	0.32311	0.249422
12.8383	12.6943	0.325052	0.256527
12.8388	12.6948	0.322698	0.259706
12.8393	12.6953	0.322254	0.259375
12.8397	12.6958	0.32084	0.259294
12.8402	12.6963	0.322722	0.261462
12.8407	12.6967	0.321675	0.262051
12.8412	12.6972	0.320561	0.26089
12.8416	12.6977	0.32205	0.258916
12.8421	12.6982	0.321434	0.255483
12.8426	12.6986	0.321435	0.252154
12.8431	12.6991	0.322307	0.252081
12.8435	12.6995	0.321579	0.249243
12.844	12.7	0.320546	0.242998
12.8445	12.7005	0.320972	0.238485
12.8449	12.701	0.324752	0.238206
12.8454	12.7014	0.321922	0.233981
12.8459	12.7019	0.31999	0.231075
12.8464	12.7024	0.323817	0.228697
12.8468	12.7028	0.322413	0.226288
12.8473	12.7033	0.322325	0.22603
12.8478	12.7038	0.321999	0.230326
12.8482	12.7043	0.321026	0.232793
12.8487	12.7047	0.321938	0.235115
12.8492	12.7052	0.320725	0.239344
12.8497	12.7057	0.32419	0.247204
12.8501	12.7062	0.323013	0.258204
12.8506	12.7067	0.32128	0.267901
12.8511	12.7071	0.323676	0.276333
12.8516	12.7076	0.32414	0.287539
12.852	12.7081	0.324684	0.301416
12.8525	12.7086	0.324298	0.314384
12.853	12.709	0.323772	0.329226
12.8534	12.7095	0.324302	0.341857
12.8539	12.71	0.324448	0.35371
12.8544	12.7104	0.325382	0.368586
12.8549	12.7109	0.325639	0.384731
12.8553	12.7114	0.322681	0.394967
12.8558	12.7119	0.322797	0.406627
12.8563	12.7123	0.324714	0.416221
12.8567	12.7128	0.324473	0.425549
12.8572	12.7133	0.324585	0.437888
12.8577	12.7137	0.324634	0.446659
12.8582	12.7142	0.324541	0.454898
12.8586	12.7147	0.323866	0.459416
12.8591	12.7152	0.324513	0.469086
12.8596	12.7156	0.325092	0.479739
12.8601	12.7161	0.32377	0.489019
12.8605	12.7166	0.324283	0.496306
12.861	12.7171	0.325184	0.503018
12.8615	12.7175	0.323224	0.509109
12.8619	12.718	0.323491	0.518306
12.8624	12.7185	0.323811	0.518581
12.8629	12.719	0.321556	0.510891
12.8634	12.7194	0.324174	0.509998
12.8638	12.7199	0.322693	0.505698
12.8643	12.7203	0.322682	0.501357
12.8648	12.7208	0.322214	0.500753
12.8652	12.7213	0.323959	0.502486
12.8657	12.7218	0.323411	0.507982
12.8662	12.7222	0.322567	0.5223
12.8667	12.7227	0.323605	0.546395
12.8671	12.7231	0.323679	0.581989
12.8676	12.7236	0.321559	0.621085
12.8681	12.7241	0.320311	0.667514
12.8686	12.7246	0.321342	0.721637
12.869	12.725	0.318237	0.768295
12.8695	12.7255	0.317725	0.807165
12.87	12.726	0.318968	0.841248
12.8704	12.7265	0.322027	0.873162
12.8709	12.7269	0.318863	0.889133
12.8714	12.7274	0.320362	0.905091
12.8719	12.7279	0.323188	0.923225
12.8723	12.7284	0.32089	0.925387
12.8728	12.7288	0.323132	0.932283
12.8733	12.7293	0.324807	0.942394
12.8737	12.7298	0.320197	0.944384
12.8742	12.7302	0.32065	0.950655
12.8747	12.7307	0.322748	0.955487
12.8752	12.7312	0.32364	0.957607
12.8756	12.7317	0.322653	0.955737
12.8761	12.7321	0.322908	0.960076
12.8766	12.7326	0.323387	0.969306
12.8771	12.7331	0.322436	0.961836
12.8775	12.7335	0.324587	0.967091
12.878	12.734	0.324955	0.9706
12.8785	12.7345	0.323174	0.970554
12.8789	12.735	0.32391	0.974361
12.8794	12.7355	0.322423	0.970753
12.8799	12.7359	0.326202	0.975123
12.8804	12.7364	0.323935	0.972234
12.8808	12.7369	0.323833	0.979535
12.8813	12.7374	0.325271	0.985151
12.8818	12.7379	0.324398	0.980847
12.8822	12.7383	0.3258	0.981541
12.8827	12.7388	0.325131	0.985261
12.8832	12.7393	0.32612	0.986435
12.8837	12.7397	0.324331	0.983536
12.8841	12.7402	0.323864	0.978902
12.8846	12.7407	0.325733	0.985181
12.8851	12.7412	0.325747	0.982968
12.8856	12.7416	0.325013	0.987572
12.886	12.7421	0.324457	0.989461
12.8865	12.7426	0.326011	0.986785
12.887	12.743	0.326378	0.989807
12.8874	12.7435	0.326607	0.992889
12.8879	12.744	0.327162	0.991005
12.8884	12.7444	0.326628	0.992426
12.8889	12.7449	0.326752	0.988615
12.8893	12.7454	0.328165	0.99265
12.8898	12.7459	0.326635	0.991259
12.8903	12.7463	0.325773	0.994195
12.8907	12.7468	0.325982	0.992706
12.8912	12.7473	0.324414	0.988975
12.8917	12.7478	0.327433	0.995861
12.8922	12.7482	0.328261	1.0022
12.8926	12.7487	0.327771	0.996821
12.8931	12.7492	0.324808	0.994512
12.8936	12.7496	0.327028	0.99453
12.8941	12.7501	0.328345	0.996393
12.8945	12.7506	0.327186	0.993298
12.895	12.751	0.326868	0.998067
12.8955	12.7515	0.328111	0.999722
12.8959	12.752	0.325603	0.993806
12.8964	12.7524	0.328371	0.995288
12.8969	12.7529	0.327298	0.996828
12.8974	12.7534	0.326837	0.997725
12.8978	12.7538	0.326729	0.999277
12.8983	12.7543	0.325972	0.994801
12.8988	12.7548	0.328366	1.00017
