# 1304     AichiSR QXAFS
# Start     : 8.9544
# End       : 9.0544
# Dir       : Backward
# Points    : 300
# ScanTime  : 1.01549
# Date      : 13.04.23 22:30
# Ring Cur. : 25.6[mA]
12.7557	12.6118	0.296706	0.228025
12.7562	12.6123	0.295068	0.228328
12.7566	12.6127	0.296894	0.227554
12.7571	12.6132	0.299168	0.229866
12.7576	12.6137	0.297116	0.228033
12.7581	12.6141	0.297835	0.230868
12.7585	12.6146	0.299934	0.234232
12.759	12.6151	0.297261	0.230792
12.7595	12.6156	0.299464	0.231468
12.7599	12.616	0.301496	0.23342
12.7604	12.6165	0.3014	0.235266
12.7609	12.617	0.299327	0.234
12.7614	12.6175	0.299712	0.233915
12.7618	12.6179	0.300498	0.232025
12.7623	12.6184	0.298393	0.232599
12.7628	12.6189	0.299824	0.234608
12.7632	12.6193	0.299619	0.234439
12.7637	12.6198	0.300389	0.233421
12.7642	12.6203	0.30081	0.23314
12.7647	12.6208	0.301029	0.23388
12.7651	12.6212	0.302028	0.235847
12.7656	12.6217	0.300933	0.236326
12.7661	12.6222	0.301765	0.23681
12.7666	12.6227	0.301856	0.234543
12.767	12.6231	0.302795	0.237835
12.7675	12.6236	0.300519	0.237135
12.768	12.6241	0.301505	0.240964
12.7684	12.6245	0.301012	0.238361
12.7689	12.625	0.298381	0.237166
12.7694	12.6255	0.301487	0.240002
12.7699	12.626	0.302055	0.241945
12.7703	12.6265	0.300544	0.241682
12.7708	12.6269	0.300324	0.239793
12.7713	12.6274	0.304056	0.241822
12.7717	12.6279	0.301397	0.241877
12.7722	12.6284	0.302194	0.243513
12.7727	12.6288	0.304119	0.244713
12.7732	12.6293	0.301733	0.242433
12.7736	12.6298	0.302913	0.243155
12.7741	12.6302	0.304622	0.242958
12.7746	12.6307	0.303555	0.243786
12.7751	12.6312	0.301118	0.243171
12.7755	12.6317	0.305001	0.241306
12.776	12.6321	0.303036	0.24134
12.7765	12.6326	0.303419	0.243175
12.7769	12.633	0.303767	0.24437
12.7774	12.6335	0.304183	0.243963
12.7779	12.634	0.30361	0.242729
12.7784	12.6345	0.304884	0.243152
12.7788	12.6349	0.306125	0.244162
12.7793	12.6354	0.306704	0.246241
12.7798	12.6359	0.305167	0.245814
12.7802	12.6364	0.3055	0.245248
12.7807	12.6368	0.306446	0.245612
12.7812	12.6373	0.303404	0.246396
12.7817	12.6378	0.30727	0.248363
12.7821	12.6383	0.305207	0.249486
12.7826	12.6387	0.304777	0.246478
12.7831	12.6392	0.306252	0.247315
12.7836	12.6396	0.307618	0.251097
12.784	12.6401	0.305435	0.251293
12.7845	12.6406	0.304389	0.251234
12.785	12.6411	0.30588	0.249747
12.7854	12.6415	0.308654	0.250767
12.7859	12.642	0.305177	0.249623
12.7864	12.6425	0.306903	0.251111
12.7869	12.6429	0.306894	0.251549
12.7873	12.6434	0.305745	0.24934
12.7878	12.6439	0.306765	0.249114
12.7883	12.6443	0.307884	0.24971
12.7887	12.6448	0.305855	0.248759
12.7892	12.6453	0.302988	0.245461
12.7897	12.6458	0.305835	0.245136
12.7902	12.6462	0.307331	0.245195
12.7906	12.6467	0.30333	0.242834
12.7911	12.6472	0.304779	0.24409
12.7916	12.6477	0.307151	0.244307
12.7921	12.6482	0.307107	0.24069
12.7925	12.6486	0.306763	0.239477
12.793	12.6491	0.308893	0.240794
12.7935	12.6496	0.309805	0.239222
12.7939	12.65	0.307783	0.23499
12.7944	12.6505	0.307167	0.23287
12.7949	12.651	0.312167	0.233557
12.7954	12.6515	0.3094	0.230391
12.7958	12.652	0.308727	0.228561
12.7963	12.6524	0.308361	0.227614
12.7968	12.6529	0.309877	0.224137
12.7972	12.6533	0.310412	0.221644
12.7977	12.6538	0.309866	0.221131
12.7982	12.6543	0.309515	0.221538
12.7987	12.6548	0.309862	0.219461
12.7991	12.6552	0.311629	0.217685
12.7996	12.6557	0.312795	0.217141
12.8001	12.6562	0.309397	0.215389
12.8006	12.6567	0.31135	0.215527
12.801	12.6572	0.31258	0.216782
12.8015	12.6576	0.309143	0.212455
12.802	12.6581	0.310066	0.213577
12.8024	12.6586	0.309852	0.21504
12.8029	12.6591	0.310622	0.216089
12.8034	12.6595	0.311177	0.216407
12.8039	12.66	0.311971	0.217133
12.8043	12.6604	0.313282	0.217055
12.8048	12.6609	0.310974	0.218607
12.8053	12.6614	0.311752	0.223069
12.8057	12.6619	0.312693	0.223928
12.8062	12.6623	0.31204	0.223775
12.8067	12.6628	0.314349	0.226234
12.8072	12.6633	0.313646	0.227422
12.8076	12.6637	0.313536	0.230296
12.8081	12.6642	0.312921	0.231771
12.8086	12.6647	0.312085	0.231499
12.8091	12.6651	0.312735	0.233833
12.8095	12.6656	0.312532	0.235538
12.81	12.6661	0.312866	0.238699
12.8105	12.6666	0.312054	0.240715
12.8109	12.6671	0.311859	0.240538
12.8114	12.6675	0.314991	0.244254
12.8119	12.668	0.314318	0.246707
12.8124	12.6685	0.314054	0.249764
12.8128	12.6689	0.312187	0.249634
12.8133	12.6694	0.312722	0.251445
12.8138	12.6699	0.316197	0.254317
12.8142	12.6703	0.313813	0.256011
12.8147	12.6708	0.31401	0.257745
12.8152	12.6713	0.313027	0.260473
12.8157	12.6717	0.312807	0.259057
12.8161	12.6722	0.313767	0.259778
12.8166	12.6727	0.313886	0.264592
12.8171	12.6731	0.313477	0.266172
12.8176	12.6736	0.311259	0.266184
12.818	12.6741	0.311485	0.26611
12.8185	12.6746	0.316375	0.268797
12.819	12.675	0.31311	0.269466
12.8194	12.6755	0.313439	0.270774
12.8199	12.676	0.315525	0.272458
12.8204	12.6765	0.31434	0.270267
12.8209	12.677	0.315044	0.270786
12.8213	12.6774	0.314763	0.273498
12.8218	12.6779	0.313542	0.272604
12.8223	12.6784	0.312458	0.271395
12.8227	12.6789	0.313522	0.268746
12.8232	12.6793	0.316291	0.269914
12.8237	12.6798	0.313448	0.268746
12.8242	12.6803	0.312789	0.267628
12.8246	12.6807	0.314997	0.265722
12.8251	12.6812	0.313908	0.262937
12.8256	12.6817	0.316036	0.259836
12.8261	12.6822	0.315027	0.2604
12.8265	12.6826	0.312769	0.258833
12.827	12.6831	0.312786	0.252033
12.8275	12.6836	0.313932	0.249433
12.8279	12.684	0.316074	0.248898
12.8284	12.6845	0.314378	0.248429
12.8289	12.685	0.313597	0.244791
12.8294	12.6855	0.313935	0.241567
12.8298	12.686	0.314773	0.238019
12.8303	12.6864	0.316052	0.234942
12.8308	12.6869	0.316505	0.234043
12.8312	12.6874	0.31547	0.230444
12.8317	12.6879	0.313823	0.225311
12.8322	12.6883	0.315785	0.221742
12.8327	12.6888	0.318007	0.220458
12.8331	12.6893	0.31684	0.219786
12.8336	12.6897	0.315702	0.219843
12.8341	12.6902	0.316399	0.217867
12.8346	12.6907	0.31522	0.216947
12.835	12.6911	0.31793	0.220549
12.8355	12.6916	0.316442	0.225604
12.836	12.6921	0.313658	0.228176
12.8364	12.6925	0.313061	0.230742
12.8369	12.693	0.318083	0.236342
12.8374	12.6935	0.317626	0.24037
12.8379	12.6939	0.315142	0.244054
12.8383	12.6944	0.315845	0.250768
12.8388	12.6949	0.316409	0.253724
12.8393	12.6954	0.316145	0.253259
12.8397	12.6958	0.316761	0.255629
12.8402	12.6963	0.317275	0.258717
12.8407	12.6968	0.314421	0.257619
12.8412	12.6973	0.313137	0.255658
12.8416	12.6977	0.314547	0.251997
12.8421	12.6982	0.317049	0.252646
12.8426	12.6987	0.315332	0.249628
12.8431	12.6991	0.315398	0.247355
12.8435	12.6996	0.313956	0.241912
12.844	12.7001	0.314811	0.23869
12.8445	12.7005	0.315556	0.234361
12.8449	12.701	0.316987	0.232558
12.8454	12.7015	0.314747	0.228955
12.8459	12.702	0.312843	0.2247
12.8464	12.7024	0.315168	0.223287
12.8468	12.7029	0.316443	0.22269
12.8473	12.7034	0.315212	0.222099
12.8478	12.7038	0.31488	0.224489
12.8482	12.7043	0.316531	0.226615
12.8487	12.7048	0.315399	0.229857
12.8492	12.7053	0.314224	0.234561
12.8497	12.7058	0.316719	0.244457
12.8501	12.7062	0.317117	0.253011
12.8506	12.7067	0.313494	0.25809
12.8511	12.7072	0.31558	0.268193
12.8516	12.7077	0.317429	0.282974
12.852	12.7082	0.316635	0.296023
12.8525	12.7086	0.316089	0.308604
12.853	12.7091	0.315694	0.320496
12.8534	12.7095	0.316806	0.33315
12.8539	12.71	0.3158	0.34877
12.8544	12.7105	0.318974	0.363619
12.8549	12.711	0.31778	0.377197
12.8553	12.7114	0.315503	0.382556
12.8558	12.7119	0.316317	0.394703
12.8563	12.7124	0.315864	0.406892
12.8567	12.7128	0.316887	0.418932
12.8572	12.7133	0.31478	0.428155
12.8577	12.7138	0.316417	0.434394
12.8582	12.7143	0.315666	0.442017
12.8586	12.7147	0.315493	0.448697
12.8591	12.7152	0.316677	0.459912
12.8596	12.7157	0.316669	0.468915
12.8601	12.7162	0.313436	0.47167
12.8605	12.7166	0.315603	0.480968
12.861	12.7171	0.315988	0.493456
12.8615	12.7176	0.315398	0.499011
12.8619	12.7181	0.316066	0.502989
12.8624	12.7185	0.315889	0.501796
12.8629	12.719	0.313692	0.49762
12.8634	12.7195	0.31346	0.495668
12.8638	12.7199	0.31534	0.495856
12.8643	12.7204	0.31411	0.490183
12.8648	12.7209	0.313165	0.483128
12.8652	12.7213	0.315404	0.486839
12.8657	12.7218	0.313638	0.494689
12.8662	12.7223	0.313861	0.507581
12.8667	12.7227	0.314499	0.531471
12.8671	12.7232	0.314057	0.564494
12.8676	12.7237	0.312504	0.599151
12.8681	12.7241	0.312814	0.652077
12.8686	12.7246	0.312939	0.704576
12.869	12.7251	0.309628	0.749482
12.8695	12.7256	0.307998	0.782729
12.87	12.726	0.311474	0.820129
12.8704	12.7265	0.315333	0.858356
12.8709	12.727	0.313881	0.872495
12.8714	12.7275	0.31253	0.88481
12.8719	12.7279	0.313664	0.895722
12.8723	12.7284	0.313675	0.900659
12.8728	12.7289	0.311278	0.903895
12.8733	12.7293	0.314076	0.918446
12.8737	12.7298	0.31441	0.923515
12.8742	12.7303	0.312707	0.920244
12.8747	12.7308	0.315428	0.927866
12.8752	12.7312	0.31458	0.932122
12.8756	12.7317	0.315078	0.935586
12.8761	12.7322	0.313073	0.936696
12.8766	12.7327	0.314309	0.938708
12.8771	12.7331	0.315506	0.940652
12.8775	12.7336	0.314591	0.938743
12.878	12.7341	0.315816	0.944654
12.8785	12.7345	0.314858	0.946459
12.8789	12.735	0.312338	0.941575
12.8794	12.7355	0.314876	0.947713
12.8799	12.736	0.316293	0.950714
12.8804	12.7365	0.31668	0.953504
12.8808	12.737	0.316151	0.956046
12.8813	12.7374	0.316597	0.956972
12.8818	12.7379	0.316267	0.955729
12.8822	12.7384	0.316024	0.955709
12.8827	12.7389	0.317009	0.964382
12.8832	12.7393	0.31713	0.962749
12.8837	12.7398	0.314814	0.956648
12.8841	12.7402	0.318955	0.961715
12.8846	12.7407	0.317838	0.965452
12.8851	12.7412	0.317193	0.965789
12.8856	12.7417	0.317307	0.96362
12.886	12.7421	0.319456	0.968335
12.8865	12.7426	0.320793	0.967601
12.887	12.7431	0.319897	0.970058
12.8874	12.7435	0.320171	0.973832
12.8879	12.744	0.318939	0.974809
12.8884	12.7445	0.317772	0.96658
12.8889	12.745	0.323038	0.974455
12.8893	12.7454	0.320421	0.975412
12.8898	12.7459	0.321335	0.974786
12.8903	12.7464	0.32015	0.980605
12.8907	12.7469	0.321341	0.976661
12.8912	12.7473	0.322489	0.974742
12.8917	12.7478	0.321624	0.981113
12.8922	12.7483	0.324559	0.985911
12.8926	12.7488	0.320294	0.977664
12.8931	12.7492	0.320696	0.974412
12.8936	12.7497	0.325181	0.98722
12.8941	12.7501	0.322667	0.982381
12.8945	12.7506	0.320819	0.978493
12.895	12.7511	0.323069	0.986387
12.8955	12.7516	0.323617	0.986779
12.8959	12.752	0.324213	0.98187
12.8964	12.7525	0.323143	0.98459
12.8969	12.753	0.324271	0.9912
12.8974	12.7534	0.321663	0.981795
12.8978	12.7539	0.320659	0.981961
12.8983	12.7544	0.325591	0.989701
12.8988	12.7548	0.323504	0.98625
