# 1304     AichiSR QXAFS
# Start     : 8.9544
# End       : 9.0544
# Dir       : Backward
# Points    : 300
# ScanTime  : 1.01549
# Date      : 13.04.23 22:23
# Ring Cur. : 25.5[mA]
12.7557	12.6118	0.306169	0.234414
12.7562	12.6122	0.304279	0.235714
12.7566	12.6127	0.305562	0.234434
12.7571	12.6131	0.304485	0.233456
12.7576	12.6136	0.305978	0.235435
12.7581	12.6141	0.3074	0.237796
12.7585	12.6145	0.308282	0.240869
12.759	12.615	0.305675	0.237143
12.7595	12.6155	0.306072	0.237011
12.7599	12.616	0.30779	0.239856
12.7604	12.6164	0.309314	0.240502
12.7609	12.6169	0.308002	0.241311
12.7614	12.6174	0.308465	0.23968
12.7618	12.6179	0.308962	0.239811
12.7623	12.6184	0.307341	0.238919
12.7628	12.6188	0.309675	0.240866
12.7632	12.6193	0.309844	0.242517
12.7637	12.6198	0.309736	0.240603
12.7642	12.6202	0.305984	0.237956
12.7647	12.6207	0.30896	0.240842
12.7651	12.6212	0.311243	0.242438
12.7656	12.6217	0.307692	0.24236
12.7661	12.6221	0.3083	0.240905
12.7666	12.6226	0.307889	0.239838
12.767	12.6231	0.309488	0.243427
12.7675	12.6235	0.309805	0.244248
12.768	12.624	0.31177	0.246482
12.7684	12.6245	0.309922	0.245182
12.7689	12.625	0.308473	0.24308
12.7694	12.6254	0.312511	0.247344
12.7699	12.6259	0.310839	0.248531
12.7703	12.6264	0.309308	0.249811
12.7708	12.6269	0.308716	0.246237
12.7713	12.6273	0.310238	0.247958
12.7717	12.6278	0.309066	0.247592
12.7722	12.6283	0.309946	0.249735
12.7727	12.6288	0.312667	0.251272
12.7732	12.6292	0.311102	0.249212
12.7736	12.6297	0.309588	0.246646
12.7741	12.6302	0.31165	0.248811
12.7746	12.6306	0.314596	0.252189
12.7751	12.6311	0.309811	0.249884
12.7755	12.6316	0.310568	0.247674
12.776	12.6321	0.311301	0.247587
12.7765	12.6325	0.312142	0.248905
12.7769	12.633	0.312839	0.250325
12.7774	12.6334	0.313918	0.252109
12.7779	12.6339	0.311665	0.248816
12.7784	12.6344	0.312974	0.246664
12.7788	12.6349	0.312892	0.250442
12.7793	12.6353	0.313109	0.252268
12.7798	12.6358	0.31408	0.252288
12.7802	12.6363	0.313576	0.252643
12.7807	12.6368	0.313667	0.250756
12.7812	12.6372	0.311767	0.251322
12.7817	12.6377	0.313769	0.255234
12.7821	12.6382	0.313459	0.25576
12.7826	12.6387	0.313305	0.253479
12.7831	12.6391	0.31367	0.253702
12.7836	12.6396	0.314937	0.256269
12.784	12.64	0.316036	0.257059
12.7845	12.6405	0.314955	0.258328
12.785	12.641	0.316498	0.256288
12.7854	12.6415	0.314709	0.256754
12.7859	12.6419	0.312756	0.255325
12.7864	12.6424	0.31481	0.258664
12.7869	12.6429	0.314242	0.259631
12.7873	12.6433	0.313647	0.255215
12.7878	12.6438	0.313803	0.254539
12.7883	12.6443	0.313179	0.255095
12.7887	12.6447	0.313791	0.254638
12.7892	12.6452	0.311591	0.253075
12.7897	12.6457	0.31402	0.251948
12.7902	12.6462	0.313351	0.250381
12.7906	12.6467	0.313029	0.249514
12.7911	12.6471	0.312828	0.250759
12.7916	12.6476	0.316916	0.25091
12.7921	12.6481	0.316089	0.248574
12.7925	12.6486	0.315664	0.245724
12.793	12.649	0.315811	0.244918
12.7935	12.6495	0.316534	0.244652
12.7939	12.65	0.317252	0.242736
12.7944	12.6504	0.31666	0.240463
12.7949	12.6509	0.317415	0.238081
12.7954	12.6514	0.315722	0.235653
12.7958	12.6519	0.316688	0.235211
12.7963	12.6523	0.317672	0.23407
12.7968	12.6528	0.317678	0.230132
12.7972	12.6533	0.317968	0.228767
12.7977	12.6537	0.318658	0.228858
12.7982	12.6542	0.317573	0.227748
12.7987	12.6547	0.318405	0.225636
12.7991	12.6552	0.318707	0.222388
12.7996	12.6557	0.319584	0.221511
12.8001	12.6561	0.316783	0.219657
12.8006	12.6566	0.317002	0.220842
12.801	12.6571	0.319755	0.221343
12.8015	12.6576	0.318153	0.219119
12.802	12.658	0.31922	0.218202
12.8024	12.6585	0.318852	0.21987
12.8029	12.659	0.319793	0.223049
12.8034	12.6594	0.320825	0.222714
12.8039	12.6599	0.320103	0.221509
12.8043	12.6604	0.32177	0.2245
12.8048	12.6609	0.318645	0.224949
12.8053	12.6613	0.319236	0.227186
12.8057	12.6618	0.32029	0.230194
12.8062	12.6623	0.320605	0.228951
12.8067	12.6627	0.319956	0.231504
12.8072	12.6632	0.319262	0.233099
12.8076	12.6637	0.318602	0.235272
12.8081	12.6641	0.320033	0.237919
12.8086	12.6646	0.321681	0.238295
12.8091	12.6651	0.322127	0.239612
12.8095	12.6656	0.318695	0.240721
12.81	12.666	0.320961	0.243869
12.8105	12.6665	0.322527	0.246853
12.8109	12.667	0.31973	0.246139
12.8114	12.6675	0.320252	0.249172
12.8119	12.6679	0.321441	0.252836
12.8124	12.6684	0.319642	0.253874
12.8128	12.6689	0.320001	0.256008
12.8133	12.6693	0.321097	0.256673
12.8138	12.6698	0.323808	0.259744
12.8142	12.6703	0.320714	0.260761
12.8147	12.6707	0.320489	0.264692
12.8152	12.6712	0.322564	0.267272
12.8157	12.6717	0.32185	0.265757
12.8161	12.6721	0.320849	0.267463
12.8166	12.6726	0.322432	0.270636
12.8171	12.6731	0.321302	0.272124
12.8176	12.6735	0.321745	0.273638
12.818	12.674	0.321563	0.271857
12.8185	12.6745	0.325409	0.275279
12.819	12.675	0.321474	0.274666
12.8194	12.6755	0.32093	0.276849
12.8199	12.6759	0.322717	0.277827
12.8204	12.6764	0.322429	0.276951
12.8209	12.6769	0.321875	0.275845
12.8213	12.6774	0.322281	0.279196
12.8218	12.6779	0.320937	0.280532
12.8223	12.6783	0.320807	0.279056
12.8227	12.6788	0.321944	0.276369
12.8232	12.6793	0.324482	0.277176
12.8237	12.6797	0.321897	0.275069
12.8242	12.6802	0.321134	0.274458
12.8246	12.6807	0.324282	0.27329
12.8251	12.6812	0.322399	0.26833
12.8256	12.6816	0.322309	0.26734
12.8261	12.6821	0.322073	0.264389
12.8265	12.6826	0.321364	0.263531
12.827	12.683	0.320682	0.260055
12.8275	12.6835	0.320286	0.256659
12.8279	12.684	0.322822	0.255684
12.8284	12.6844	0.319611	0.25217
12.8289	12.6849	0.321	0.250445
12.8294	12.6854	0.322902	0.249548
12.8298	12.6859	0.322135	0.243556
12.8303	12.6864	0.32412	0.239981
12.8308	12.6868	0.323748	0.238028
12.8312	12.6873	0.323591	0.235798
12.8317	12.6878	0.323949	0.230915
12.8322	12.6883	0.324881	0.228587
12.8327	12.6887	0.326877	0.22575
12.8331	12.6892	0.322277	0.224779
12.8336	12.6897	0.322969	0.224556
12.8341	12.6901	0.324092	0.222727
12.8346	12.6906	0.323322	0.222887
12.835	12.6911	0.322565	0.225476
12.8355	12.6915	0.323616	0.22912
12.836	12.692	0.322278	0.233326
12.8364	12.6925	0.322956	0.237289
12.8369	12.6929	0.325232	0.243385
12.8374	12.6934	0.324984	0.248236
12.8379	12.6939	0.32097	0.25123
12.8383	12.6943	0.323527	0.256552
12.8388	12.6948	0.32504	0.259008
12.8393	12.6953	0.323537	0.260263
12.8397	12.6958	0.322217	0.260865
12.8402	12.6962	0.323573	0.264547
12.8407	12.6967	0.323112	0.263919
12.8412	12.6972	0.321857	0.260905
12.8416	12.6977	0.324665	0.258743
12.8421	12.6981	0.326197	0.257707
12.8426	12.6986	0.320785	0.2532
12.8431	12.6991	0.321667	0.252734
12.8435	12.6995	0.323232	0.249209
12.844	12.7	0.323812	0.244244
12.8445	12.7005	0.323681	0.240494
12.8449	12.7009	0.324924	0.239534
12.8454	12.7014	0.323101	0.234646
12.8459	12.7019	0.321556	0.230579
12.8464	12.7024	0.32364	0.22845
12.8468	12.7028	0.325032	0.227861
12.8473	12.7033	0.322663	0.227559
12.8478	12.7038	0.321645	0.229118
12.8482	12.7042	0.323798	0.23349
12.8487	12.7047	0.32277	0.235015
12.8492	12.7052	0.323055	0.241329
12.8497	12.7057	0.324157	0.250567
12.8501	12.7062	0.323435	0.260157
12.8506	12.7066	0.323199	0.266264
12.8511	12.7071	0.325015	0.277114
12.8516	12.7076	0.325481	0.290947
12.852	12.7081	0.324374	0.302766
12.8525	12.7086	0.323076	0.316394
12.853	12.709	0.325799	0.330475
12.8534	12.7095	0.32552	0.342244
12.8539	12.7099	0.326401	0.355842
12.8544	12.7104	0.326345	0.371614
12.8549	12.7109	0.323029	0.382316
12.8553	12.7114	0.324458	0.393327
12.8558	12.7119	0.325987	0.407572
12.8563	12.7123	0.325883	0.418668
12.8567	12.7128	0.323371	0.426785
12.8572	12.7132	0.323062	0.436759
12.8577	12.7137	0.325102	0.445396
12.8582	12.7142	0.324937	0.453381
12.8586	12.7147	0.326404	0.462267
12.8591	12.7151	0.324114	0.470767
12.8596	12.7156	0.32344	0.478832
12.8601	12.7161	0.324441	0.485585
12.8605	12.7166	0.324562	0.494983
12.861	12.7171	0.325111	0.50439
12.8615	12.7175	0.323594	0.511033
12.8619	12.718	0.322127	0.512625
12.8624	12.7185	0.322974	0.514361
12.8629	12.7189	0.324635	0.512239
12.8634	12.7194	0.323346	0.510431
12.8638	12.7199	0.323436	0.507379
12.8643	12.7203	0.322345	0.502435
12.8648	12.7208	0.321311	0.498344
12.8652	12.7213	0.323448	0.503077
12.8657	12.7217	0.323808	0.512209
12.8662	12.7222	0.320291	0.521404
12.8667	12.7227	0.320632	0.543859
12.8671	12.7231	0.321904	0.578578
12.8676	12.7236	0.32122	0.620697
12.8681	12.7241	0.31992	0.669104
12.8686	12.7245	0.317958	0.721855
12.869	12.725	0.318253	0.771079
12.8695	12.7255	0.317974	0.803452
12.87	12.726	0.320781	0.846434
12.8704	12.7264	0.321903	0.872614
12.8709	12.7269	0.318848	0.887309
12.8714	12.7274	0.319772	0.907191
12.8719	12.7279	0.322567	0.919098
12.8723	12.7284	0.322599	0.923871
12.8728	12.7288	0.327068	0.943584
12.8733	12.7293	0.325504	0.948375
12.8737	12.7297	0.321077	0.945862
12.8742	12.7302	0.320205	0.943307
12.8747	12.7307	0.324306	0.954841
12.8752	12.7312	0.324454	0.959811
12.8756	12.7317	0.320059	0.954526
12.8761	12.7321	0.320553	0.959802
12.8766	12.7326	0.3222	0.96496
12.8771	12.7331	0.323537	0.961533
12.8775	12.7335	0.322449	0.966223
12.878	12.734	0.323245	0.970792
12.8785	12.7345	0.323041	0.971574
12.8789	12.735	0.322894	0.96632
12.8794	12.7354	0.326485	0.97494
12.8799	12.7359	0.324457	0.97872
12.8804	12.7364	0.323487	0.974018
12.8808	12.7369	0.321462	0.975423
12.8813	12.7374	0.32239	0.974815
12.8818	12.7378	0.325539	0.980408
12.8822	12.7383	0.326613	0.981178
12.8827	12.7388	0.323763	0.983109
12.8832	12.7393	0.324134	0.984325
12.8837	12.7397	0.323739	0.981817
12.8841	12.7402	0.326195	0.985559
12.8846	12.7407	0.326777	0.990523
12.8851	12.7411	0.325367	0.988734
12.8856	12.7416	0.325181	0.988618
12.886	12.7421	0.325501	0.991651
12.8865	12.7425	0.329733	0.992876
12.887	12.743	0.326487	0.993989
12.8874	12.7435	0.328202	0.996029
12.8879	12.7439	0.327475	0.998581
12.8884	12.7444	0.325919	0.99219
12.8889	12.7449	0.328542	0.995895
12.8893	12.7454	0.328526	1.00224
12.8898	12.7459	0.32701	0.996366
12.8903	12.7463	0.327544	1.00006
12.8907	12.7468	0.329599	1.00443
12.8912	12.7473	0.330206	1.00055
12.8917	12.7478	0.329473	1.00127
12.8922	12.7482	0.332129	1.00888
12.8926	12.7487	0.329347	1.0062
12.8931	12.7492	0.328569	1.00256
12.8936	12.7496	0.333114	1.00762
12.8941	12.7501	0.331039	1.00486
12.8945	12.7506	0.327864	1.00383
12.895	12.751	0.329654	1.00824
12.8955	12.7515	0.330578	1.00684
12.8959	12.752	0.330063	1.00487
12.8964	12.7524	0.330976	1.00621
12.8969	12.7529	0.331577	1.01222
12.8974	12.7534	0.330848	1.00607
12.8978	12.7538	0.328738	1.00314
12.8983	12.7543	0.333546	1.01416
12.8988	12.7548	0.332214	1.0135
