# 1304     AichiSR QXAFS
# Start     : 8.9544
# End       : 9.0544
# Dir       : Forward
# Points    : 300
# ScanTime  : 1.01549
# Date      : 13.04.23 22:22
# Ring Cur. : 25.5[mA]
12.7557	12.7557	0.400633	1.21736
12.7562	12.7552	0.400507	1.22234
12.7566	12.7548	0.399346	1.21944
12.7571	12.7543	0.398727	1.21844
12.7576	12.7538	0.399147	1.21802
12.7581	12.7533	0.400973	1.21746
12.7585	12.7529	0.401864	1.2232
12.759	12.7524	0.399271	1.22357
12.7595	12.752	0.401132	1.21828
12.7599	12.7515	0.399922	1.21565
12.7604	12.751	0.402963	1.22009
12.7609	12.7505	0.40205	1.22334
12.7614	12.7501	0.399911	1.22046
12.7618	12.7496	0.402015	1.22021
12.7623	12.7491	0.402063	1.216
12.7628	12.7487	0.401597	1.21898
12.7632	12.7482	0.402137	1.2208
12.7637	12.7477	0.400245	1.22158
12.7642	12.7473	0.399495	1.21667
12.7647	12.7468	0.400785	1.21809
12.7651	12.7463	0.401425	1.217
12.7656	12.7458	0.401434	1.2203
12.7661	12.7454	0.398667	1.22096
12.7666	12.7449	0.400214	1.21663
12.767	12.7444	0.403332	1.21659
12.7675	12.7439	0.402502	1.21801
12.768	12.7435	0.402131	1.21856
12.7684	12.743	0.400701	1.21802
12.7689	12.7425	0.400506	1.21529
12.7694	12.7421	0.40035	1.21436
12.7699	12.7416	0.402573	1.21736
12.7703	12.7411	0.401817	1.2178
12.7708	12.7406	0.399979	1.21733
12.7713	12.7402	0.402863	1.21548
12.7717	12.7397	0.401449	1.21462
12.7722	12.7392	0.40202	1.21416
12.7727	12.7388	0.402174	1.21598
12.7732	12.7383	0.400469	1.21508
12.7736	12.7378	0.401142	1.21114
12.7741	12.7374	0.40095	1.20839
12.7746	12.7369	0.401652	1.21111
12.7751	12.7364	0.40145	1.21119
12.7755	12.7359	0.399646	1.20704
12.776	12.7354	0.401407	1.20449
12.7765	12.7349	0.402366	1.20424
12.7769	12.7345	0.402427	1.20414
12.7774	12.734	0.400358	1.20566
12.7779	12.7335	0.398824	1.20574
12.7784	12.733	0.4009	1.19657
12.7788	12.7326	0.402237	1.19806
12.7793	12.7321	0.400503	1.19332
12.7798	12.7317	0.40239	1.19243
12.7802	12.7312	0.400528	1.19344
12.7807	12.7307	0.400916	1.18646
12.7812	12.7302	0.401837	1.18241
12.7817	12.7297	0.401573	1.18148
12.7821	12.7293	0.40076	1.17879
12.7826	12.7288	0.400072	1.1709
12.7831	12.7284	0.398857	1.16122
12.7836	12.7279	0.400317	1.15581
12.784	12.7274	0.400894	1.1484
12.7845	12.7269	0.399722	1.13375
12.785	12.7265	0.39828	1.1169
12.7854	12.726	0.397905	1.09354
12.7859	12.7255	0.396398	1.06274
12.7864	12.725	0.395276	1.02284
12.7869	12.7245	0.3968	0.982057
12.7873	12.7241	0.394558	0.926443
12.7878	12.7236	0.395765	0.860466
12.7883	12.7231	0.397477	0.80149
12.7887	12.7227	0.400724	0.750531
12.7892	12.7222	0.399337	0.703406
12.7897	12.7217	0.400008	0.66737
12.7902	12.7213	0.399718	0.64036
12.7906	12.7208	0.400623	0.62731
12.7911	12.7203	0.400565	0.620816
12.7916	12.7199	0.401908	0.621416
12.7921	12.7194	0.3996	0.626232
12.7925	12.7189	0.399609	0.625984
12.793	12.7185	0.400719	0.631389
12.7935	12.718	0.401019	0.636468
12.7939	12.7175	0.399833	0.636782
12.7944	12.7171	0.39926	0.633894
12.7949	12.7166	0.401274	0.625767
12.7954	12.7161	0.400012	0.616614
12.7958	12.7156	0.400288	0.605576
12.7963	12.7151	0.403118	0.597825
12.7968	12.7147	0.399493	0.584189
12.7972	12.7142	0.39794	0.570274
12.7977	12.7137	0.399637	0.560572
12.7982	12.7132	0.401562	0.553069
12.7987	12.7128	0.399827	0.543828
12.7991	12.7123	0.39815	0.531167
12.7996	12.7118	0.39923	0.517085
12.8001	12.7114	0.401269	0.503914
12.8006	12.7109	0.398434	0.491465
12.801	12.7104	0.401368	0.479342
12.8015	12.7099	0.39879	0.462135
12.802	12.7095	0.3986	0.44382
12.8024	12.709	0.400082	0.427853
12.8029	12.7085	0.400111	0.415058
12.8034	12.7081	0.400054	0.396616
12.8039	12.7076	0.397686	0.379733
12.8043	12.7071	0.397997	0.362916
12.8048	12.7066	0.398485	0.346228
12.8053	12.7062	0.399178	0.335055
12.8057	12.7057	0.39957	0.325194
12.8062	12.7052	0.397679	0.312647
12.8067	12.7047	0.397497	0.300754
12.8072	12.7042	0.40053	0.293847
12.8076	12.7038	0.399104	0.289849
12.8081	12.7033	0.398997	0.284739
12.8086	12.7028	0.397963	0.281495
12.8091	12.7024	0.399992	0.27927
12.8095	12.7019	0.398717	0.279839
12.81	12.7014	0.399098	0.282767
12.8105	12.7009	0.398286	0.28795
12.8109	12.7005	0.398581	0.290124
12.8114	12.7	0.3963	0.293447
12.8119	12.6995	0.399687	0.297801
12.8124	12.6991	0.400092	0.303208
12.8128	12.6986	0.399118	0.309123
12.8133	12.6981	0.396996	0.311929
12.8138	12.6977	0.397275	0.313552
12.8142	12.6972	0.398748	0.316993
12.8147	12.6967	0.397956	0.319402
12.8152	12.6962	0.39767	0.322875
12.8157	12.6958	0.397291	0.322697
12.8161	12.6953	0.397234	0.320546
12.8166	12.6948	0.399745	0.319746
12.8171	12.6943	0.397808	0.318944
12.8176	12.6939	0.396729	0.316507
12.818	12.6934	0.396611	0.311072
12.8185	12.6929	0.395018	0.303584
12.819	12.6925	0.398782	0.298707
12.8194	12.692	0.397164	0.293809
12.8199	12.6915	0.397291	0.290015
12.8204	12.6911	0.396837	0.284212
12.8209	12.6906	0.395442	0.276886
12.8213	12.6901	0.396714	0.274201
12.8218	12.6897	0.396982	0.273673
12.8223	12.6892	0.397757	0.27324
12.8227	12.6887	0.396336	0.273665
12.8232	12.6883	0.393763	0.273178
12.8237	12.6878	0.397533	0.275879
12.8242	12.6873	0.396127	0.280645
12.8246	12.6868	0.394816	0.287121
12.8251	12.6864	0.394808	0.288017
12.8256	12.6859	0.394081	0.291432
12.8261	12.6854	0.395219	0.296082
12.8265	12.6849	0.394422	0.300107
12.827	12.6844	0.395089	0.305931
12.8275	12.684	0.393604	0.307224
12.8279	12.6835	0.392826	0.307683
12.8284	12.683	0.395209	0.311163
12.8289	12.6826	0.394777	0.316695
12.8294	12.6821	0.394112	0.320517
12.8298	12.6816	0.393804	0.322589
12.8303	12.6812	0.393948	0.323665
12.8308	12.6807	0.395785	0.328046
12.8312	12.6802	0.396308	0.332215
12.8317	12.6797	0.394747	0.334817
12.8322	12.6793	0.394291	0.335406
12.8327	12.6788	0.39465	0.335622
12.8331	12.6783	0.396751	0.338465
12.8336	12.6779	0.39525	0.340132
12.8341	12.6774	0.395916	0.341613
12.8346	12.6769	0.395844	0.340594
12.835	12.6764	0.394862	0.339748
12.8355	12.6759	0.397625	0.338401
12.836	12.6755	0.395786	0.340289
12.8364	12.675	0.392954	0.339673
12.8369	12.6745	0.39284	0.33886
12.8374	12.674	0.393093	0.335702
12.8379	12.6735	0.395275	0.335193
12.8383	12.6731	0.393902	0.334731
12.8388	12.6726	0.394649	0.334291
12.8393	12.6722	0.394228	0.332025
12.8397	12.6717	0.391508	0.329092
12.8402	12.6712	0.39434	0.327603
12.8407	12.6707	0.396196	0.327875
12.8412	12.6703	0.394871	0.325948
12.8416	12.6698	0.393262	0.323084
12.8421	12.6693	0.393961	0.317715
12.8426	12.6689	0.395171	0.316766
12.8431	12.6684	0.394991	0.315273
12.8435	12.6679	0.394284	0.313713
12.844	12.6675	0.393642	0.309929
12.8445	12.667	0.392438	0.305624
12.8449	12.6665	0.395704	0.303117
12.8454	12.666	0.394264	0.303655
12.8459	12.6656	0.394286	0.301211
12.8464	12.6651	0.393076	0.297034
12.8468	12.6646	0.393053	0.294788
12.8473	12.6641	0.393075	0.291807
12.8478	12.6637	0.394525	0.291108
12.8482	12.6632	0.391626	0.28858
12.8487	12.6627	0.391792	0.286442
12.8492	12.6623	0.391148	0.283056
12.8497	12.6618	0.392372	0.281425
12.8501	12.6613	0.392985	0.281945
12.8506	12.6609	0.391262	0.278737
12.8511	12.6604	0.391605	0.276554
12.8516	12.6599	0.39126	0.273257
12.852	12.6595	0.391248	0.271659
12.8525	12.659	0.389974	0.271517
12.853	12.6585	0.390084	0.270531
12.8534	12.6581	0.390055	0.268954
12.8539	12.6576	0.390691	0.26711
12.8544	12.6571	0.391464	0.26701
12.8549	12.6566	0.391424	0.269853
12.8553	12.6561	0.391152	0.27044
12.8558	12.6557	0.389725	0.270377
12.8563	12.6552	0.389979	0.269648
12.8567	12.6547	0.390215	0.271563
12.8572	12.6542	0.392009	0.274794
12.8577	12.6537	0.390654	0.275375
12.8582	12.6533	0.389269	0.277487
12.8586	12.6528	0.389387	0.278758
12.8591	12.6524	0.390498	0.280226
12.8596	12.6519	0.390647	0.284903
12.8601	12.6514	0.389972	0.288244
12.8605	12.6509	0.390161	0.288547
12.861	12.6504	0.390152	0.289435
12.8615	12.65	0.390478	0.292318
12.8619	12.6495	0.390239	0.295662
12.8624	12.649	0.388415	0.298581
12.8629	12.6486	0.388552	0.300573
12.8634	12.6481	0.387931	0.300868
12.8638	12.6476	0.388572	0.303286
12.8643	12.6471	0.389446	0.305861
12.8648	12.6467	0.38662	0.307257
12.8652	12.6462	0.385595	0.306879
12.8657	12.6457	0.384602	0.304747
12.8662	12.6452	0.38547	0.308705
12.8667	12.6447	0.386721	0.310198
12.8671	12.6443	0.383801	0.311415
12.8676	12.6438	0.385355	0.312468
12.8681	12.6433	0.3844	0.31078
12.8686	12.6429	0.386235	0.312481
12.869	12.6424	0.387169	0.31546
12.8695	12.642	0.385908	0.316028
12.87	12.6415	0.388238	0.315616
12.8704	12.641	0.387189	0.313483
12.8709	12.6405	0.387234	0.315135
12.8714	12.6401	0.387856	0.315877
12.8719	12.6396	0.387499	0.316693
12.8723	12.6391	0.386574	0.315726
12.8728	12.6387	0.386558	0.312143
12.8733	12.6382	0.386284	0.31231
12.8737	12.6377	0.387835	0.31337
12.8742	12.6373	0.385932	0.31395
12.8747	12.6368	0.386053	0.310302
12.8752	12.6363	0.386091	0.309767
12.8756	12.6358	0.391172	0.312364
12.8761	12.6354	0.389537	0.311187
12.8766	12.6349	0.386073	0.310324
12.8771	12.6344	0.385391	0.307862
12.8775	12.6339	0.385009	0.3061
12.878	12.6335	0.38526	0.305828
12.8785	12.633	0.38712	0.308694
12.8789	12.6325	0.385674	0.307938
12.8794	12.6321	0.384405	0.307457
12.8799	12.6316	0.385952	0.306719
12.8804	12.6311	0.38556	0.306229
12.8808	12.6306	0.386159	0.30842
12.8813	12.6302	0.38575	0.310154
12.8818	12.6297	0.384889	0.307755
12.8822	12.6292	0.384376	0.307069
12.8827	12.6288	0.386217	0.30742
12.8832	12.6283	0.384071	0.310049
12.8837	12.6278	0.384367	0.308683
12.8841	12.6273	0.383507	0.306419
12.8846	12.6269	0.385498	0.305747
12.8851	12.6264	0.385471	0.30615
12.8856	12.6259	0.386346	0.306915
12.886	12.6254	0.385083	0.309319
12.8865	12.6249	0.385634	0.306689
12.887	12.6245	0.385353	0.304217
12.8874	12.624	0.384656	0.304189
12.8879	12.6235	0.38514	0.305127
12.8884	12.623	0.384917	0.304353
12.8889	12.6226	0.386186	0.301981
12.8893	12.6221	0.385746	0.299802
12.8898	12.6217	0.3864	0.301411
12.8903	12.6212	0.386158	0.302975
12.8907	12.6207	0.385524	0.30155
12.8912	12.6202	0.385113	0.301086
12.8917	12.6197	0.385998	0.298851
12.8922	12.6193	0.386104	0.300043
12.8926	12.6188	0.388021	0.302584
12.8931	12.6183	0.385934	0.301685
12.8936	12.6179	0.386559	0.300072
12.8941	12.6174	0.386737	0.298936
12.8945	12.6169	0.386926	0.300262
12.895	12.6164	0.38717	0.300651
12.8955	12.616	0.386566	0.300949
12.8959	12.6155	0.384913	0.300124
12.8964	12.615	0.38587	0.298831
12.8969	12.6145	0.387266	0.298886
12.8974	12.6141	0.387265	0.301638
12.8978	12.6136	0.386815	0.298622
12.8983	12.6131	0.38604	0.298393
12.8988	12.6127	0.387206	0.29517
