# 1304     AichiSR QXAFS
# Start     : 8.9544
# End       : 9.0544
# Dir       : Backward
# Points    : 300
# ScanTime  : 1.01549
# Date      : 13.04.23 22:25
# Ring Cur. : 25.4[mA]
12.7557	12.6118	0.302118	0.232473
12.7562	12.6122	0.301727	0.230351
12.7566	12.6127	0.303229	0.231568
12.7571	12.6131	0.304835	0.233809
12.7576	12.6136	0.303597	0.235485
12.7581	12.6141	0.301155	0.235524
12.7585	12.6145	0.306047	0.235756
12.759	12.615	0.30466	0.234915
12.7595	12.6155	0.303101	0.235483
12.7599	12.616	0.303991	0.237109
12.7604	12.6165	0.305439	0.238413
12.7609	12.6169	0.304115	0.235719
12.7614	12.6174	0.305442	0.236072
12.7618	12.6179	0.307058	0.237832
12.7623	12.6184	0.30267	0.237225
12.7628	12.6188	0.306338	0.239583
12.7632	12.6193	0.30641	0.238767
12.7637	12.6198	0.305581	0.237626
12.7642	12.6202	0.30366	0.237991
12.7647	12.6207	0.306341	0.24032
12.7651	12.6212	0.305202	0.238558
12.7656	12.6217	0.302283	0.236017
12.7661	12.6221	0.306747	0.238858
12.7666	12.6226	0.304966	0.238329
12.767	12.6231	0.304989	0.239457
12.7675	12.6235	0.306178	0.241856
12.768	12.624	0.306091	0.240719
12.7684	12.6245	0.304671	0.239721
12.7689	12.625	0.303504	0.240919
12.7694	12.6255	0.307675	0.246027
12.7699	12.6259	0.304653	0.244284
12.7703	12.6264	0.305704	0.243194
12.7708	12.6269	0.306731	0.244318
12.7713	12.6274	0.305273	0.244476
12.7717	12.6278	0.305717	0.245248
12.7722	12.6283	0.306566	0.247363
12.7727	12.6288	0.305698	0.245571
12.7732	12.6292	0.306888	0.245517
12.7736	12.6297	0.306394	0.245573
12.7741	12.6302	0.304908	0.245934
12.7746	12.6307	0.30583	0.245747
12.7751	12.6311	0.305932	0.244261
12.7755	12.6316	0.306519	0.244908
12.776	12.6321	0.306566	0.245996
12.7765	12.6325	0.306775	0.24607
12.7769	12.633	0.306675	0.245508
12.7774	12.6335	0.307783	0.2446
12.7779	12.6339	0.308519	0.244475
12.7784	12.6344	0.30686	0.245592
12.7788	12.6349	0.306931	0.247002
12.7793	12.6354	0.307533	0.246147
12.7798	12.6358	0.307017	0.245982
12.7802	12.6363	0.311248	0.246399
12.7807	12.6368	0.30712	0.247088
12.7812	12.6373	0.306078	0.24824
12.7817	12.6377	0.308689	0.250593
12.7821	12.6382	0.308997	0.249427
12.7826	12.6387	0.310844	0.250104
12.7831	12.6391	0.307625	0.250632
12.7836	12.6396	0.309925	0.252201
12.784	12.6401	0.308454	0.252242
12.7845	12.6405	0.305871	0.249576
12.785	12.641	0.311851	0.252326
12.7854	12.6415	0.308845	0.252369
12.7859	12.642	0.307497	0.252893
12.7864	12.6424	0.307357	0.251724
12.7869	12.6429	0.307522	0.251467
12.7873	12.6433	0.309227	0.250335
12.7878	12.6438	0.308239	0.251027
12.7883	12.6443	0.307685	0.252244
12.7887	12.6448	0.30666	0.249488
12.7892	12.6452	0.307065	0.24666
12.7897	12.6457	0.309647	0.24894
12.7902	12.6462	0.308005	0.247111
12.7906	12.6467	0.306253	0.246458
12.7911	12.6472	0.307193	0.244436
12.7916	12.6476	0.308818	0.242783
12.7921	12.6481	0.31146	0.242633
12.7925	12.6486	0.307861	0.240962
12.793	12.6491	0.308669	0.241269
12.7935	12.6495	0.308246	0.237973
12.7939	12.65	0.308808	0.234653
12.7944	12.6505	0.311573	0.234106
12.7949	12.6509	0.311782	0.234855
12.7954	12.6514	0.309816	0.232786
12.7958	12.6519	0.309954	0.229815
12.7963	12.6524	0.31181	0.228027
12.7968	12.6528	0.313386	0.226514
12.7972	12.6533	0.311943	0.224865
12.7977	12.6538	0.311241	0.22319
12.7982	12.6542	0.310966	0.221502
12.7987	12.6547	0.310794	0.218826
12.7991	12.6552	0.312847	0.217359
12.7996	12.6557	0.310703	0.219121
12.8001	12.6562	0.309692	0.2165
12.8006	12.6566	0.311233	0.215707
12.801	12.6571	0.311792	0.214181
12.8015	12.6576	0.313302	0.214794
12.802	12.6581	0.312049	0.216274
12.8024	12.6585	0.311423	0.218153
12.8029	12.659	0.311174	0.216724
12.8034	12.6595	0.311992	0.215989
12.8039	12.6599	0.313313	0.218128
12.8043	12.6604	0.313205	0.22013
12.8048	12.6609	0.311457	0.222578
12.8053	12.6613	0.31224	0.222012
12.8057	12.6618	0.311246	0.221147
12.8062	12.6623	0.312604	0.223743
12.8067	12.6627	0.313212	0.227157
12.8072	12.6632	0.314051	0.230182
12.8076	12.6637	0.312136	0.228321
12.8081	12.6641	0.31358	0.230269
12.8086	12.6646	0.312998	0.233321
12.8091	12.6651	0.314205	0.236001
12.8095	12.6656	0.313639	0.239001
12.81	12.6661	0.313268	0.237463
12.8105	12.6665	0.31437	0.239732
12.8109	12.667	0.312975	0.241572
12.8114	12.6675	0.311958	0.242401
12.8119	12.668	0.312185	0.246503
12.8124	12.6684	0.313396	0.247116
12.8128	12.6689	0.311995	0.246839
12.8133	12.6693	0.313099	0.249905
12.8138	12.6698	0.314576	0.255846
12.8142	12.6703	0.311297	0.256999
12.8147	12.6707	0.313303	0.256859
12.8152	12.6712	0.315779	0.259081
12.8157	12.6717	0.313858	0.259849
12.8161	12.6722	0.312613	0.262546
12.8166	12.6726	0.314998	0.266604
12.8171	12.6731	0.312829	0.26561
12.8176	12.6736	0.313502	0.263963
12.818	12.674	0.313881	0.267964
12.8185	12.6745	0.3132	0.2689
12.819	12.675	0.312821	0.268256
12.8194	12.6755	0.313082	0.269355
12.8199	12.676	0.314971	0.269452
12.8204	12.6764	0.313495	0.268379
12.8209	12.6769	0.314893	0.270578
12.8213	12.6774	0.313997	0.272509
12.8218	12.6779	0.314231	0.271744
12.8223	12.6783	0.314117	0.270248
12.8227	12.6788	0.314123	0.271234
12.8232	12.6793	0.315231	0.272258
12.8237	12.6797	0.315276	0.270489
12.8242	12.6802	0.313549	0.26672
12.8246	12.6807	0.315044	0.26502
12.8251	12.6812	0.317816	0.264564
12.8256	12.6816	0.31639	0.263488
12.8261	12.6821	0.312728	0.25857
12.8265	12.6826	0.312876	0.255241
12.827	12.683	0.314301	0.252199
12.8275	12.6835	0.312507	0.250425
12.8279	12.684	0.31325	0.249834
12.8284	12.6845	0.312931	0.246752
12.8289	12.6849	0.315282	0.243928
12.8294	12.6854	0.315346	0.241678
12.8298	12.6859	0.314276	0.238732
12.8303	12.6864	0.314455	0.236214
12.8308	12.6869	0.315849	0.2343
12.8312	12.6873	0.317033	0.228577
12.8317	12.6878	0.31667	0.224749
12.8322	12.6883	0.315861	0.222939
12.8327	12.6887	0.315174	0.219136
12.8331	12.6892	0.31312	0.2188
12.8336	12.6897	0.315385	0.21695
12.8341	12.6901	0.316817	0.215875
12.8346	12.6906	0.315488	0.218355
12.835	12.6911	0.314794	0.221373
12.8355	12.6916	0.315059	0.226007
12.836	12.692	0.317811	0.228801
12.8364	12.6925	0.31815	0.23245
12.8369	12.6929	0.317268	0.238146
12.8374	12.6934	0.317241	0.242393
12.8379	12.6939	0.315524	0.246711
12.8383	12.6944	0.317418	0.248696
12.8388	12.6948	0.318086	0.253329
12.8393	12.6953	0.316142	0.254565
12.8397	12.6958	0.316179	0.257179
12.8402	12.6963	0.316197	0.258343
12.8407	12.6967	0.316614	0.256076
12.8412	12.6972	0.319274	0.256544
12.8416	12.6977	0.31859	0.255363
12.8421	12.6982	0.318307	0.255212
12.8426	12.6986	0.3167	0.252556
12.8431	12.6991	0.317348	0.247503
12.8435	12.6995	0.320037	0.244389
12.844	12.7	0.318126	0.240566
12.8445	12.7005	0.31735	0.237654
12.8449	12.701	0.318585	0.234494
12.8454	12.7014	0.317051	0.229397
12.8459	12.7019	0.318068	0.227378
12.8464	12.7024	0.318834	0.226604
12.8468	12.7028	0.318467	0.225878
12.8473	12.7033	0.315186	0.224223
12.8478	12.7038	0.31836	0.225506
12.8482	12.7043	0.321524	0.2304
12.8487	12.7047	0.31944	0.234231
12.8492	12.7052	0.319583	0.24018
12.8497	12.7057	0.319607	0.247826
12.8501	12.7062	0.320885	0.254682
12.8506	12.7067	0.321589	0.263775
12.8511	12.7071	0.322396	0.276192
12.8516	12.7076	0.322016	0.289096
12.852	12.7081	0.32101	0.300396
12.8525	12.7086	0.319498	0.310689
12.853	12.709	0.321985	0.325586
12.8534	12.7095	0.319971	0.339177
12.8539	12.71	0.321592	0.354022
12.8544	12.7104	0.32082	0.365812
12.8549	12.7109	0.322218	0.378299
12.8553	12.7114	0.323418	0.390702
12.8558	12.7119	0.32264	0.405202
12.8563	12.7123	0.323619	0.415973
12.8567	12.7128	0.32207	0.426317
12.8572	12.7133	0.324155	0.432422
12.8577	12.7137	0.326373	0.445041
12.8582	12.7142	0.324373	0.452533
12.8586	12.7147	0.32157	0.458437
12.8591	12.7152	0.32088	0.467215
12.8596	12.7156	0.323921	0.475294
12.8601	12.7161	0.324038	0.486643
12.8605	12.7166	0.321762	0.494489
12.861	12.7171	0.322942	0.503334
12.8615	12.7176	0.322081	0.506972
12.8619	12.718	0.322125	0.510909
12.8624	12.7185	0.32595	0.514287
12.8629	12.719	0.323772	0.513274
12.8634	12.7194	0.321668	0.509751
12.8638	12.7199	0.324399	0.506087
12.8643	12.7203	0.323062	0.499637
12.8648	12.7208	0.322835	0.498442
12.8652	12.7213	0.324049	0.503303
12.8657	12.7218	0.32346	0.512859
12.8662	12.7222	0.320611	0.517969
12.8667	12.7227	0.320943	0.540818
12.8671	12.7231	0.324578	0.578535
12.8676	12.7236	0.319835	0.614747
12.8681	12.7241	0.318451	0.663594
12.8686	12.7246	0.319733	0.720421
12.869	12.725	0.318735	0.767072
12.8695	12.7255	0.319262	0.805695
12.87	12.726	0.321994	0.848942
12.8704	12.7265	0.321422	0.880206
12.8709	12.7269	0.322129	0.893532
12.8714	12.7274	0.322249	0.909942
12.8719	12.7279	0.326696	0.923964
12.8723	12.7284	0.322462	0.928932
12.8728	12.7288	0.321739	0.934339
12.8733	12.7293	0.322654	0.943889
12.8737	12.7298	0.323058	0.942312
12.8742	12.7302	0.321809	0.946066
12.8747	12.7307	0.324599	0.955066
12.8752	12.7312	0.3236	0.960456
12.8756	12.7317	0.32295	0.96031
12.8761	12.7321	0.324004	0.963246
12.8766	12.7326	0.328549	0.972851
12.8771	12.7331	0.325199	0.972501
12.8775	12.7335	0.324754	0.974454
12.878	12.734	0.326212	0.979367
12.8785	12.7345	0.326434	0.977423
12.8789	12.735	0.325305	0.974048
12.8794	12.7355	0.326111	0.979927
12.8799	12.7359	0.324495	0.980196
12.8804	12.7364	0.324962	0.977444
12.8808	12.7369	0.322967	0.976003
12.8813	12.7374	0.324933	0.982818
12.8818	12.7379	0.32438	0.980925
12.8822	12.7383	0.323314	0.98367
12.8827	12.7388	0.327519	0.985998
12.8832	12.7393	0.32693	0.986588
12.8837	12.7397	0.326869	0.987955
12.8841	12.7402	0.327879	0.992861
12.8846	12.7407	0.326692	0.994447
12.8851	12.7412	0.326539	0.989709
12.8856	12.7416	0.32805	0.993304
12.886	12.7421	0.328753	0.997098
12.8865	12.7426	0.328024	0.994626
12.887	12.743	0.327767	0.995322
12.8874	12.7435	0.327319	0.992846
12.8879	12.744	0.326776	0.99073
12.8884	12.7444	0.328047	0.993408
12.8889	12.7449	0.328462	0.997015
12.8893	12.7454	0.327771	0.999133
12.8898	12.7459	0.326646	0.994136
12.8903	12.7463	0.327648	0.999886
12.8907	12.7468	0.32982	1.00102
12.8912	12.7473	0.328543	0.99934
12.8917	12.7478	0.329268	1.00239
12.8922	12.7482	0.329673	1.00208
12.8926	12.7487	0.328361	0.999299
12.8931	12.7492	0.330177	1.00059
12.8936	12.7496	0.329619	1.00447
12.8941	12.7501	0.326805	1.00368
12.8945	12.7506	0.325561	0.995428
12.895	12.751	0.32846	0.997467
12.8955	12.7515	0.330698	1.00467
12.8959	12.752	0.329213	1.00273
12.8964	12.7524	0.327199	0.997853
12.8969	12.7529	0.328262	1.00211
12.8974	12.7534	0.329476	1.00546
12.8978	12.7538	0.329836	1.00356
12.8983	12.7543	0.330242	1.00628
12.8988	12.7548	0.330128	1.01153
