# 1304     AichiSR QXAFS
# Start     : 8.9544
# End       : 9.0544
# Dir       : Backward
# Points    : 300
# ScanTime  : 1.01549
# Date      : 13.04.23 22:26
# Ring Cur. : 25.5[mA]
12.7557	12.6118	0.300098	0.227705
12.7562	12.6122	0.29691	0.228711
12.7566	12.6127	0.298898	0.231828
12.7571	12.6132	0.300529	0.231917
12.7576	12.6136	0.297928	0.229216
12.7581	12.6141	0.300249	0.231257
12.7585	12.6146	0.302895	0.234637
12.759	12.615	0.298851	0.234445
12.7595	12.6155	0.29901	0.232468
12.7599	12.616	0.298444	0.232457
12.7604	12.6165	0.301414	0.232372
12.7609	12.6169	0.299743	0.233893
12.7614	12.6174	0.301645	0.235087
12.7618	12.6179	0.299491	0.235145
12.7623	12.6184	0.297799	0.231832
12.7628	12.6188	0.302665	0.233652
12.7632	12.6193	0.302687	0.235686
12.7637	12.6198	0.300333	0.235255
12.7642	12.6202	0.300491	0.234653
12.7647	12.6207	0.299841	0.233586
12.7651	12.6212	0.303186	0.233381
12.7656	12.6217	0.299709	0.2346
12.7661	12.6221	0.301168	0.236172
12.7666	12.6226	0.298651	0.23495
12.767	12.6231	0.299047	0.234849
12.7675	12.6235	0.299746	0.236388
12.768	12.624	0.301342	0.237911
12.7684	12.6245	0.299726	0.239242
12.7689	12.625	0.299103	0.237524
12.7694	12.6255	0.29943	0.238432
12.7699	12.6259	0.301878	0.237721
12.7703	12.6264	0.301755	0.241427
12.7708	12.6269	0.299512	0.240989
12.7713	12.6274	0.301574	0.24123
12.7717	12.6279	0.300712	0.23983
12.7722	12.6283	0.303079	0.241386
12.7727	12.6288	0.301397	0.241508
12.7732	12.6293	0.300816	0.242855
12.7736	12.6297	0.29949	0.240699
12.7741	12.6302	0.301863	0.23983
12.7746	12.6307	0.301405	0.239959
12.7751	12.6311	0.300234	0.239711
12.7755	12.6316	0.301465	0.243124
12.776	12.6321	0.301594	0.24108
12.7765	12.6326	0.301484	0.240642
12.7769	12.633	0.304709	0.240829
12.7774	12.6335	0.306437	0.243697
12.7779	12.6339	0.301326	0.24285
12.7784	12.6344	0.29986	0.239514
12.7788	12.6349	0.301452	0.240798
12.7793	12.6354	0.303618	0.24164
12.7798	12.6358	0.300608	0.243375
12.7802	12.6363	0.301758	0.243621
12.7807	12.6368	0.30069	0.242869
12.7812	12.6373	0.300314	0.241587
12.7817	12.6377	0.304352	0.244637
12.7821	12.6382	0.303241	0.246155
12.7826	12.6387	0.302141	0.247051
12.7831	12.6391	0.301799	0.245237
12.7836	12.6396	0.304525	0.24643
12.784	12.6401	0.303533	0.247169
12.7845	12.6405	0.302001	0.24791
12.785	12.641	0.304109	0.250013
12.7854	12.6415	0.303223	0.247821
12.7859	12.642	0.30247	0.2449
12.7864	12.6424	0.304433	0.248952
12.7869	12.6429	0.304292	0.249167
12.7873	12.6433	0.30213	0.248698
12.7878	12.6438	0.302249	0.244573
12.7883	12.6443	0.303498	0.246404
12.7887	12.6448	0.30403	0.244936
12.7892	12.6452	0.301279	0.245213
12.7897	12.6457	0.301706	0.244853
12.7902	12.6462	0.302943	0.242617
12.7906	12.6467	0.302071	0.241054
12.7911	12.6472	0.305305	0.241126
12.7916	12.6476	0.307161	0.242838
12.7921	12.6481	0.305215	0.241452
12.7925	12.6486	0.303427	0.238491
12.793	12.6491	0.305144	0.237061
12.7935	12.6495	0.308542	0.237065
12.7939	12.65	0.305711	0.234446
12.7944	12.6505	0.306432	0.233026
12.7949	12.651	0.30703	0.230996
12.7954	12.6514	0.307081	0.227221
12.7958	12.6519	0.309131	0.227965
12.7963	12.6524	0.31098	0.22858
12.7968	12.6528	0.306557	0.225207
12.7972	12.6533	0.307767	0.223319
12.7977	12.6538	0.309157	0.220246
12.7982	12.6542	0.311294	0.220053
12.7987	12.6547	0.310462	0.219542
12.7991	12.6552	0.310952	0.219242
12.7996	12.6557	0.310612	0.216451
12.8001	12.6562	0.310694	0.212802
12.8006	12.6566	0.311216	0.214356
12.801	12.6571	0.312126	0.215976
12.8015	12.6576	0.310391	0.214909
12.802	12.6581	0.308872	0.213473
12.8024	12.6585	0.310382	0.213681
12.8029	12.659	0.311849	0.214388
12.8034	12.6595	0.312542	0.216764
12.8039	12.6599	0.312059	0.218417
12.8043	12.6604	0.310541	0.21836
12.8048	12.6609	0.311594	0.218271
12.8053	12.6614	0.315171	0.222437
12.8057	12.6618	0.315781	0.225359
12.8062	12.6623	0.312522	0.226059
12.8067	12.6627	0.313299	0.225447
12.8072	12.6632	0.31384	0.227093
12.8076	12.6637	0.314223	0.228761
12.8081	12.6642	0.314056	0.232315
12.8086	12.6646	0.31356	0.235316
12.8091	12.6651	0.312433	0.233868
12.8095	12.6656	0.311894	0.234791
12.81	12.6661	0.314874	0.239429
12.8105	12.6665	0.317606	0.242445
12.8109	12.667	0.313848	0.244727
12.8114	12.6675	0.314486	0.243421
12.8119	12.668	0.315907	0.245727
12.8124	12.6684	0.317405	0.24951
12.8128	12.6689	0.316271	0.252445
12.8133	12.6694	0.314982	0.254485
12.8138	12.6698	0.314862	0.253816
12.8142	12.6703	0.313931	0.255801
12.8147	12.6708	0.315946	0.258647
12.8152	12.6712	0.317565	0.262497
12.8157	12.6717	0.314336	0.263156
12.8161	12.6722	0.314435	0.26279
12.8166	12.6726	0.316988	0.265272
12.8171	12.6731	0.315719	0.268178
12.8176	12.6736	0.315578	0.268529
12.818	12.674	0.316036	0.271149
12.8185	12.6745	0.316326	0.269918
12.819	12.675	0.31579	0.268581
12.8194	12.6755	0.316824	0.271839
12.8199	12.676	0.319673	0.275482
12.8204	12.6764	0.31671	0.275291
12.8209	12.6769	0.316804	0.27364
12.8213	12.6774	0.317467	0.273528
12.8218	12.6779	0.316994	0.273966
12.8223	12.6784	0.316706	0.274214
12.8227	12.6788	0.317484	0.274134
12.8232	12.6793	0.319131	0.272204
12.8237	12.6797	0.316604	0.26871
12.8242	12.6802	0.316393	0.268915
12.8246	12.6807	0.319029	0.270377
12.8251	12.6812	0.319367	0.26709
12.8256	12.6817	0.318384	0.262302
12.8261	12.6821	0.318757	0.261606
12.8265	12.6826	0.317044	0.259117
12.827	12.6831	0.318035	0.256234
12.8275	12.6835	0.318536	0.255519
12.8279	12.684	0.316382	0.250755
12.8284	12.6845	0.316004	0.247442
12.8289	12.6849	0.316912	0.246219
12.8294	12.6854	0.318949	0.245426
12.8298	12.6859	0.318174	0.241717
12.8303	12.6864	0.318441	0.236995
12.8308	12.6869	0.318538	0.235124
12.8312	12.6873	0.319436	0.231392
12.8317	12.6878	0.320256	0.229224
12.8322	12.6883	0.318915	0.22761
12.8327	12.6888	0.320192	0.222234
12.8331	12.6892	0.320519	0.220811
12.8336	12.6897	0.321178	0.221391
12.8341	12.6901	0.320975	0.222322
12.8346	12.6906	0.320366	0.222515
12.835	12.6911	0.318974	0.223006
12.8355	12.6916	0.321023	0.225959
12.836	12.692	0.320186	0.230317
12.8364	12.6925	0.319575	0.235819
12.8369	12.693	0.320179	0.242009
12.8374	12.6934	0.318996	0.244482
12.8379	12.6939	0.319355	0.247122
12.8383	12.6944	0.319267	0.252561
12.8388	12.6948	0.32165	0.257064
12.8393	12.6953	0.319784	0.259316
12.8397	12.6958	0.318244	0.25889
12.8402	12.6963	0.321691	0.261502
12.8407	12.6967	0.320514	0.259019
12.8412	12.6972	0.317588	0.259766
12.8416	12.6977	0.320599	0.259796
12.8421	12.6982	0.319885	0.254492
12.8426	12.6986	0.319595	0.250856
12.8431	12.6991	0.31865	0.249655
12.8435	12.6996	0.319399	0.24761
12.844	12.7	0.318359	0.242701
12.8445	12.7005	0.317168	0.237705
12.8449	12.701	0.320459	0.235367
12.8454	12.7015	0.320155	0.231759
12.8459	12.7019	0.319252	0.230183
12.8464	12.7024	0.32071	0.228549
12.8468	12.7028	0.321267	0.225654
12.8473	12.7033	0.319725	0.224487
12.8478	12.7038	0.319872	0.227526
12.8482	12.7043	0.32109	0.231316
12.8487	12.7047	0.319092	0.234518
12.8492	12.7052	0.318954	0.236987
12.8497	12.7057	0.322823	0.246834
12.8501	12.7062	0.321041	0.255515
12.8506	12.7067	0.321303	0.265151
12.8511	12.7072	0.320532	0.276344
12.8516	12.7076	0.32154	0.285664
12.852	12.7081	0.322756	0.297575
12.8525	12.7086	0.320731	0.31193
12.853	12.7091	0.322467	0.329108
12.8534	12.7095	0.321736	0.34135
12.8539	12.71	0.321507	0.351352
12.8544	12.7104	0.324416	0.366212
12.8549	12.7109	0.322576	0.380539
12.8553	12.7114	0.322562	0.392535
12.8558	12.7119	0.32037	0.404348
12.8563	12.7123	0.321804	0.413181
12.8567	12.7128	0.322787	0.422612
12.8572	12.7133	0.321601	0.431729
12.8577	12.7137	0.322455	0.443556
12.8582	12.7142	0.319781	0.450384
12.8586	12.7147	0.320974	0.454444
12.8591	12.7152	0.324001	0.466426
12.8596	12.7157	0.322734	0.477098
12.8601	12.7161	0.321242	0.48452
12.8605	12.7166	0.32272	0.495436
12.861	12.7171	0.321591	0.502055
12.8615	12.7176	0.322422	0.505584
12.8619	12.718	0.323121	0.511584
12.8624	12.7185	0.322505	0.515005
12.8629	12.719	0.319849	0.509021
12.8634	12.7194	0.319399	0.504111
12.8638	12.7199	0.323393	0.501412
12.8643	12.7203	0.32063	0.49702
12.8648	12.7208	0.319263	0.496476
12.8652	12.7213	0.321573	0.501647
12.8657	12.7218	0.321064	0.505024
12.8662	12.7222	0.319918	0.514962
12.8667	12.7227	0.322856	0.54635
12.8671	12.7232	0.320602	0.576639
12.8676	12.7236	0.317761	0.612147
12.8681	12.7241	0.317163	0.660987
12.8686	12.7246	0.320349	0.716626
12.869	12.725	0.315579	0.756982
12.8695	12.7255	0.31564	0.80143
12.87	12.726	0.318364	0.842364
12.8704	12.7265	0.317186	0.860749
12.8709	12.7269	0.319532	0.880467
12.8714	12.7274	0.320199	0.902427
12.8719	12.7279	0.321916	0.918168
12.8723	12.7284	0.318473	0.918481
12.8728	12.7288	0.31997	0.93125
12.8733	12.7293	0.32239	0.937082
12.8737	12.7298	0.319612	0.938778
12.8742	12.7302	0.319858	0.946314
12.8747	12.7307	0.321703	0.95088
12.8752	12.7312	0.321051	0.948028
12.8756	12.7317	0.321908	0.94974
12.8761	12.7322	0.320633	0.953817
12.8766	12.7326	0.321209	0.956542
12.8771	12.7331	0.321705	0.960057
12.8775	12.7336	0.319171	0.958088
12.878	12.734	0.322221	0.960321
12.8785	12.7345	0.321515	0.963836
12.8789	12.735	0.322385	0.973097
12.8794	12.7355	0.322067	0.96953
12.8799	12.736	0.323214	0.970071
12.8804	12.7364	0.322536	0.969218
12.8808	12.7369	0.322238	0.972016
12.8813	12.7374	0.322535	0.976723
12.8818	12.7379	0.321429	0.972985
12.8822	12.7383	0.321034	0.967681
12.8827	12.7388	0.323179	0.969665
12.8832	12.7393	0.323302	0.976403
12.8837	12.7397	0.322338	0.980377
12.8841	12.7402	0.322638	0.978518
12.8846	12.7407	0.323111	0.980608
12.8851	12.7412	0.324101	0.977929
12.8856	12.7416	0.322787	0.979482
12.886	12.7421	0.323677	0.982943
12.8865	12.7426	0.323666	0.983774
12.887	12.743	0.322337	0.978515
12.8874	12.7435	0.326377	0.983832
12.8879	12.744	0.324763	0.987754
12.8884	12.7444	0.32199	0.982297
12.8889	12.7449	0.323252	0.983785
12.8893	12.7454	0.325082	0.989338
12.8898	12.7459	0.324242	0.983858
12.8903	12.7464	0.322892	0.985224
12.8907	12.7468	0.325857	0.99239
12.8912	12.7473	0.325388	0.986179
12.8917	12.7478	0.322313	0.981157
12.8922	12.7483	0.325797	0.989194
12.8926	12.7487	0.324858	0.989051
12.8931	12.7492	0.322582	0.987145
12.8936	12.7496	0.325898	0.993377
12.8941	12.7501	0.327399	0.992626
12.8945	12.7506	0.325224	0.984545
12.895	12.7511	0.324507	0.991206
12.8955	12.7515	0.326268	0.993192
12.8959	12.752	0.323701	0.988097
12.8964	12.7525	0.322397	0.985003
12.8969	12.7529	0.325996	0.990377
12.8974	12.7534	0.324397	0.987152
12.8978	12.7538	0.321813	0.986708
12.8983	12.7543	0.324446	0.988345
12.8988	12.7548	0.326104	0.991517
