# 1304     AichiSR QXAFS
# Start     : 8.9544
# End       : 9.0544
# Dir       : Forward
# Points    : 300
# ScanTime  : 1.01549
# Date      : 13.04.23 22:31
# Ring Cur. : 25.6[mA]
12.7557	12.7558	0.402862	1.23038
12.7562	12.7553	0.402898	1.22908
12.7566	12.7548	0.403652	1.22737
12.7571	12.7544	0.401365	1.22411
12.7576	12.7539	0.403339	1.22729
12.7581	12.7534	0.403265	1.22675
12.7585	12.7529	0.402936	1.22837
12.759	12.7525	0.402468	1.22749
12.7595	12.752	0.401839	1.224
12.7599	12.7516	0.405599	1.22608
12.7604	12.7511	0.403157	1.22836
12.7609	12.7506	0.402932	1.22901
12.7614	12.7501	0.402617	1.23094
12.7618	12.7497	0.401722	1.22676
12.7623	12.7492	0.403992	1.22786
12.7628	12.7487	0.404791	1.23075
12.7632	12.7483	0.403016	1.23369
12.7637	12.7478	0.40392	1.22834
12.7642	12.7473	0.402335	1.22406
12.7647	12.7469	0.403133	1.22452
12.7651	12.7464	0.404134	1.22918
12.7656	12.7459	0.403181	1.22894
12.7661	12.7454	0.403567	1.22804
12.7666	12.745	0.403926	1.22588
12.767	12.7445	0.405264	1.2273
12.7675	12.744	0.40454	1.22807
12.768	12.7435	0.402366	1.22964
12.7684	12.7431	0.404625	1.22752
12.7689	12.7426	0.404276	1.22546
12.7694	12.7421	0.404922	1.22684
12.7699	12.7417	0.403493	1.22637
12.7703	12.7412	0.402212	1.22571
12.7708	12.7407	0.403064	1.22412
12.7713	12.7402	0.403017	1.22008
12.7717	12.7398	0.40322	1.22363
12.7722	12.7393	0.404566	1.22189
12.7727	12.7388	0.40471	1.22731
12.7732	12.7384	0.404533	1.22221
12.7736	12.7379	0.401601	1.21785
12.7741	12.7374	0.405817	1.22063
12.7746	12.7369	0.40492	1.21799
12.7751	12.7365	0.404025	1.22034
12.7755	12.736	0.403612	1.21776
12.776	12.7355	0.403111	1.21595
12.7765	12.735	0.405057	1.21345
12.7769	12.7345	0.404338	1.21719
12.7774	12.7341	0.405034	1.21292
12.7779	12.7336	0.404307	1.21105
12.7784	12.7331	0.403589	1.20646
12.7788	12.7327	0.404469	1.20661
12.7793	12.7322	0.404299	1.20457
12.7798	12.7317	0.403234	1.20631
12.7802	12.7312	0.402849	1.20012
12.7807	12.7308	0.403285	1.19535
12.7812	12.7303	0.403429	1.19278
12.7817	12.7298	0.404411	1.19038
12.7821	12.7294	0.402762	1.18486
12.7826	12.7289	0.404763	1.18098
12.7831	12.7284	0.403575	1.17396
12.7836	12.728	0.403861	1.16647
12.784	12.7275	0.403326	1.15614
12.7845	12.727	0.401941	1.14535
12.785	12.7265	0.400202	1.12899
12.7854	12.726	0.40127	1.10583
12.7859	12.7256	0.400318	1.07903
12.7864	12.7251	0.397789	1.04512
12.7869	12.7246	0.395681	0.997875
12.7873	12.7241	0.397428	0.943186
12.7878	12.7237	0.399938	0.882987
12.7883	12.7232	0.400896	0.8197
12.7887	12.7227	0.401327	0.759873
12.7892	12.7223	0.40264	0.710859
12.7897	12.7218	0.401797	0.670855
12.7902	12.7214	0.403982	0.64683
12.7906	12.7209	0.403567	0.629778
12.7911	12.7204	0.40314	0.625965
12.7916	12.7199	0.402019	0.626902
12.7921	12.7195	0.402989	0.625927
12.7925	12.719	0.403302	0.629996
12.793	12.7185	0.402648	0.635191
12.7935	12.7181	0.403227	0.639951
12.7939	12.7176	0.40221	0.641822
12.7944	12.7171	0.4014	0.634935
12.7949	12.7166	0.404499	0.63098
12.7954	12.7162	0.403722	0.624862
12.7958	12.7157	0.403174	0.612682
12.7963	12.7152	0.402664	0.600938
12.7968	12.7147	0.402935	0.589566
12.7972	12.7143	0.402486	0.576338
12.7977	12.7138	0.403093	0.567818
12.7982	12.7133	0.403013	0.561016
12.7987	12.7128	0.402389	0.549263
12.7991	12.7124	0.401646	0.536495
12.7996	12.7119	0.403593	0.525046
12.8001	12.7114	0.402644	0.511858
12.8006	12.711	0.403037	0.499006
12.801	12.7105	0.402458	0.484898
12.8015	12.71	0.402244	0.466695
12.802	12.7095	0.402898	0.449586
12.8024	12.7091	0.4043	0.436232
12.8029	12.7086	0.403803	0.419719
12.8034	12.7082	0.400205	0.400009
12.8039	12.7077	0.401429	0.383865
12.8043	12.7072	0.403644	0.368499
12.8048	12.7067	0.401177	0.35285
12.8053	12.7062	0.402752	0.340765
12.8057	12.7058	0.400563	0.327189
12.8062	12.7053	0.401825	0.314038
12.8067	12.7048	0.400848	0.304385
12.8072	12.7043	0.402347	0.297182
12.8076	12.7038	0.402214	0.292516
12.8081	12.7034	0.40084	0.28737
12.8086	12.7029	0.401691	0.281237
12.8091	12.7024	0.4012	0.281087
12.8095	12.702	0.402008	0.281968
12.81	12.7015	0.402982	0.286561
12.8105	12.701	0.400174	0.287622
12.8109	12.7005	0.401679	0.288669
12.8114	12.7001	0.402333	0.294021
12.8119	12.6996	0.401752	0.300228
12.8124	12.6991	0.403016	0.306766
12.8128	12.6987	0.398583	0.309572
12.8133	12.6982	0.400379	0.311973
12.8138	12.6978	0.400861	0.316415
12.8142	12.6973	0.400922	0.319976
12.8147	12.6968	0.401156	0.324376
12.8152	12.6963	0.400487	0.325971
12.8157	12.6958	0.400305	0.323937
12.8161	12.6954	0.400838	0.323463
12.8166	12.6949	0.400618	0.324041
12.8171	12.6944	0.400633	0.32299
12.8176	12.6939	0.399501	0.319046
12.818	12.6935	0.39867	0.311779
12.8185	12.693	0.402137	0.307537
12.819	12.6925	0.400214	0.302834
12.8194	12.6921	0.399604	0.298477
12.8199	12.6916	0.398842	0.291114
12.8204	12.6911	0.399329	0.285299
12.8209	12.6907	0.399782	0.280247
12.8213	12.6902	0.398569	0.278169
12.8218	12.6897	0.400494	0.276243
12.8223	12.6893	0.399153	0.274836
12.8227	12.6888	0.398167	0.274408
12.8232	12.6883	0.400168	0.274477
12.8237	12.6879	0.400021	0.27772
12.8242	12.6874	0.399517	0.282643
12.8246	12.6869	0.397635	0.285118
12.8251	12.6864	0.397327	0.288699
12.8256	12.686	0.397953	0.29167
12.8261	12.6855	0.398162	0.298051
12.8265	12.685	0.396709	0.303143
12.827	12.6845	0.396422	0.306072
12.8275	12.684	0.394797	0.307704
12.8279	12.6836	0.397553	0.311373
12.8284	12.6831	0.397583	0.315614
12.8289	12.6826	0.397703	0.319535
12.8294	12.6822	0.397108	0.321063
12.8298	12.6817	0.395995	0.322455
12.8303	12.6812	0.398672	0.325237
12.8308	12.6807	0.399206	0.329359
12.8312	12.6803	0.397364	0.334241
12.8317	12.6798	0.396166	0.336212
12.8322	12.6793	0.396697	0.337313
12.8327	12.6789	0.399471	0.339361
12.8331	12.6784	0.397172	0.341829
12.8336	12.6779	0.397141	0.343427
12.8341	12.6774	0.39842	0.344754
12.8346	12.677	0.397168	0.341878
12.835	12.6765	0.397515	0.34147
12.8355	12.676	0.397708	0.342527
12.836	12.6755	0.399623	0.342942
12.8364	12.675	0.397538	0.341224
12.8369	12.6746	0.39801	0.339278
12.8374	12.6741	0.3977	0.339047
12.8379	12.6736	0.397093	0.337762
12.8383	12.6731	0.397141	0.339919
12.8388	12.6727	0.396399	0.336549
12.8393	12.6722	0.395946	0.334277
12.8397	12.6718	0.397279	0.331587
12.8402	12.6713	0.398289	0.331277
12.8407	12.6708	0.396675	0.330842
12.8412	12.6703	0.396245	0.327962
12.8416	12.6699	0.393818	0.324491
12.8421	12.6694	0.398706	0.32187
12.8426	12.6689	0.397851	0.321004
12.8431	12.6685	0.395768	0.318718
12.8435	12.668	0.396188	0.314598
12.844	12.6675	0.397416	0.312348
12.8445	12.6671	0.398088	0.308479
12.8449	12.6666	0.397018	0.307549
12.8454	12.6661	0.39677	0.30657
12.8459	12.6656	0.395667	0.302674
12.8464	12.6652	0.396105	0.298884
12.8468	12.6647	0.397282	0.297241
12.8473	12.6642	0.396353	0.295469
12.8478	12.6637	0.395823	0.29464
12.8482	12.6633	0.395275	0.291555
12.8487	12.6628	0.394925	0.288754
12.8492	12.6623	0.396411	0.286036
12.8497	12.6619	0.396153	0.284097
12.8501	12.6614	0.396277	0.283513
12.8506	12.6609	0.393734	0.281671
12.8511	12.6605	0.393411	0.276861
12.8516	12.66	0.395578	0.276709
12.852	12.6595	0.39526	0.275484
12.8525	12.6591	0.393305	0.274326
12.853	12.6586	0.394452	0.273359
12.8534	12.6581	0.393432	0.271702
12.8539	12.6577	0.394278	0.27042
12.8544	12.6572	0.394384	0.271222
12.8549	12.6567	0.393239	0.271508
12.8553	12.6562	0.393112	0.27169
12.8558	12.6557	0.392973	0.269698
12.8563	12.6553	0.393981	0.27222
12.8567	12.6548	0.392836	0.274864
12.8572	12.6543	0.39382	0.276237
12.8577	12.6538	0.394083	0.277883
12.8582	12.6534	0.393128	0.278227
12.8586	12.6529	0.394533	0.281179
12.8591	12.6524	0.39288	0.284437
12.8596	12.652	0.392719	0.288089
12.8601	12.6515	0.393078	0.288031
12.8605	12.651	0.391859	0.28925
12.861	12.6505	0.394439	0.292533
12.8615	12.65	0.393489	0.296576
12.8619	12.6496	0.392886	0.29843
12.8624	12.6491	0.392433	0.299738
12.8629	12.6486	0.393499	0.30173
12.8634	12.6482	0.392703	0.302887
12.8638	12.6477	0.39194	0.306464
12.8643	12.6472	0.392744	0.308044
12.8648	12.6467	0.390568	0.307418
12.8652	12.6463	0.387597	0.306438
12.8657	12.6458	0.387776	0.308955
12.8662	12.6453	0.388742	0.310362
12.8667	12.6448	0.387303	0.313487
12.8671	12.6443	0.388074	0.313298
12.8676	12.6439	0.388567	0.314452
12.8681	12.6434	0.389025	0.314441
12.8686	12.6429	0.389975	0.31763
12.869	12.6425	0.388646	0.319894
12.8695	12.642	0.390103	0.318675
12.87	12.6416	0.390212	0.316883
12.8704	12.6411	0.392206	0.31785
12.8709	12.6406	0.390767	0.320402
12.8714	12.6401	0.389784	0.318527
12.8719	12.6397	0.390339	0.319119
12.8723	12.6392	0.389371	0.316757
12.8728	12.6387	0.390433	0.315869
12.8733	12.6383	0.389387	0.316589
12.8737	12.6378	0.388783	0.317648
12.8742	12.6373	0.388184	0.314412
12.8747	12.6369	0.387815	0.312681
12.8752	12.6364	0.389834	0.311672
12.8756	12.6359	0.389928	0.31399
12.8761	12.6354	0.388383	0.31287
12.8766	12.6349	0.38856	0.310018
12.8771	12.6345	0.3908	0.309768
12.8775	12.634	0.391661	0.311967
12.878	12.6335	0.392507	0.313917
12.8785	12.6331	0.388079	0.311941
12.8789	12.6326	0.387988	0.308831
12.8794	12.6321	0.389697	0.308901
12.8799	12.6317	0.390322	0.30823
12.8804	12.6312	0.388692	0.310357
12.8808	12.6307	0.38649	0.310751
12.8813	12.6302	0.387595	0.309367
12.8818	12.6298	0.388727	0.309583
12.8822	12.6293	0.38748	0.310354
12.8827	12.6288	0.388444	0.31237
12.8832	12.6284	0.385655	0.311663
12.8837	12.6279	0.387513	0.311053
12.8841	12.6274	0.388459	0.310649
12.8846	12.6269	0.388235	0.309826
12.8851	12.6265	0.387547	0.311874
12.8856	12.626	0.386579	0.310467
12.886	12.6255	0.387042	0.308325
12.8865	12.625	0.388489	0.307333
12.887	12.6245	0.387513	0.306603
12.8874	12.6241	0.38752	0.308997
12.8879	12.6236	0.386814	0.307272
12.8884	12.6231	0.388851	0.305509
12.8889	12.6227	0.388142	0.303702
12.8893	12.6222	0.388755	0.304816
12.8898	12.6217	0.388127	0.304604
12.8903	12.6212	0.386728	0.304551
12.8907	12.6208	0.389018	0.302105
12.8912	12.6203	0.388867	0.301645
12.8917	12.6198	0.387681	0.301951
12.8922	12.6193	0.389949	0.303444
12.8926	12.6189	0.388153	0.30253
12.8931	12.6184	0.389405	0.301739
12.8936	12.6179	0.390216	0.300929
12.8941	12.6175	0.389006	0.301707
12.8945	12.617	0.389247	0.303223
12.895	12.6165	0.387962	0.302767
12.8955	12.616	0.388376	0.301936
12.8959	12.6156	0.389959	0.300469
12.8964	12.6151	0.388649	0.301705
12.8969	12.6146	0.390361	0.302541
12.8974	12.6141	0.389125	0.30306
12.8978	12.6137	0.389199	0.301098
12.8983	12.6132	0.389213	0.297932
12.8988	12.6127	0.389555	0.30017
