# 1304     AichiSR QXAFS
# Start     : 8.9544
# End       : 9.0544
# Dir       : Backward
# Points    : 300
# ScanTime  : 1.01549
# Date      : 13.04.23 22:21
# Ring Cur. : 25.5[mA]
12.7557	12.6117	0.302427	0.231676
12.7562	12.6122	0.300728	0.231687
12.7566	12.6126	0.299666	0.231193
12.7571	12.6131	0.302837	0.231883
12.7576	12.6136	0.30297	0.233218
12.7581	12.614	0.3017	0.235137
12.7585	12.6145	0.301965	0.235485
12.759	12.615	0.299528	0.233843
12.7595	12.6155	0.300393	0.233246
12.7599	12.616	0.303712	0.235188
12.7604	12.6164	0.303056	0.236081
12.7609	12.6169	0.300346	0.235975
12.7614	12.6174	0.302774	0.236124
12.7618	12.6179	0.30411	0.235587
12.7623	12.6183	0.302466	0.234773
12.7628	12.6188	0.304636	0.238008
12.7632	12.6193	0.302796	0.239096
12.7637	12.6197	0.30045	0.234667
12.7642	12.6202	0.300561	0.234073
12.7647	12.6207	0.303682	0.236432
12.7651	12.6212	0.303131	0.236338
12.7656	12.6216	0.300052	0.235537
12.7661	12.6221	0.300754	0.236763
12.7666	12.6226	0.302653	0.235789
12.767	12.623	0.303948	0.238822
12.7675	12.6235	0.303143	0.238809
12.768	12.624	0.302043	0.240073
12.7684	12.6245	0.302083	0.239015
12.7689	12.6249	0.301958	0.238483
12.7694	12.6254	0.304546	0.240216
12.7699	12.6259	0.303152	0.243342
12.7703	12.6264	0.301781	0.242434
12.7708	12.6269	0.300225	0.24126
12.7713	12.6273	0.30378	0.241609
12.7717	12.6278	0.306988	0.246175
12.7722	12.6283	0.305672	0.245716
12.7727	12.6288	0.302696	0.244666
12.7732	12.6292	0.302951	0.242548
12.7736	12.6297	0.301812	0.240373
12.7741	12.6301	0.304381	0.242633
12.7746	12.6306	0.304542	0.245249
12.7751	12.6311	0.302115	0.245121
12.7755	12.6316	0.301791	0.241793
12.776	12.632	0.303979	0.242432
12.7765	12.6325	0.305312	0.242539
12.7769	12.633	0.30312	0.242194
12.7774	12.6334	0.304365	0.244917
12.7779	12.6339	0.303893	0.243508
12.7784	12.6344	0.302875	0.240335
12.7788	12.6348	0.30537	0.243758
12.7793	12.6353	0.305014	0.244648
12.7798	12.6358	0.303119	0.243901
12.7802	12.6363	0.305654	0.245641
12.7807	12.6368	0.305464	0.244422
12.7812	12.6372	0.303353	0.244918
12.7817	12.6377	0.306498	0.248621
12.7821	12.6382	0.306006	0.249478
12.7826	12.6386	0.3046	0.247053
12.7831	12.6391	0.303863	0.246268
12.7836	12.6396	0.308124	0.250507
12.784	12.64	0.307488	0.251413
12.7845	12.6405	0.304587	0.250117
12.785	12.641	0.306849	0.251002
12.7854	12.6415	0.307023	0.249709
12.7859	12.6419	0.306838	0.249674
12.7864	12.6424	0.308373	0.253322
12.7869	12.6428	0.307321	0.25289
12.7873	12.6433	0.305486	0.249556
12.7878	12.6438	0.30747	0.248589
12.7883	12.6442	0.307465	0.250191
12.7887	12.6447	0.308127	0.250063
12.7892	12.6452	0.303969	0.247528
12.7897	12.6457	0.306878	0.245382
12.7902	12.6462	0.306844	0.244659
12.7906	12.6467	0.30679	0.243888
12.7911	12.6471	0.308449	0.245384
12.7916	12.6476	0.307995	0.245648
12.7921	12.6481	0.30886	0.242438
12.7925	12.6486	0.308566	0.240111
12.793	12.649	0.31006	0.241813
12.7935	12.6495	0.311256	0.239138
12.7939	12.65	0.309302	0.237063
12.7944	12.6504	0.309969	0.234334
12.7949	12.6509	0.311864	0.2327
12.7954	12.6514	0.311386	0.231082
12.7958	12.6519	0.312359	0.231577
12.7963	12.6523	0.3136	0.230529
12.7968	12.6528	0.312318	0.226524
12.7972	12.6533	0.311281	0.224974
12.7977	12.6537	0.31371	0.223214
12.7982	12.6542	0.315658	0.225046
12.7987	12.6547	0.312161	0.220741
12.7991	12.6552	0.311014	0.217848
12.7996	12.6556	0.312486	0.217503
12.8001	12.6561	0.313142	0.215828
12.8006	12.6566	0.313743	0.217856
12.801	12.6571	0.3133	0.218485
12.8015	12.6576	0.314938	0.215705
12.802	12.658	0.314697	0.215315
12.8024	12.6585	0.314992	0.217841
12.8029	12.659	0.316433	0.219175
12.8034	12.6594	0.314306	0.219212
12.8039	12.6599	0.313108	0.217987
12.8043	12.6604	0.31601	0.219355
12.8048	12.6608	0.315171	0.222456
12.8053	12.6613	0.315589	0.224615
12.8057	12.6618	0.316896	0.226531
12.8062	12.6623	0.314372	0.224936
12.8067	12.6627	0.315243	0.225691
12.8072	12.6632	0.319037	0.231202
12.8076	12.6636	0.318156	0.233555
12.8081	12.6641	0.316843	0.234319
12.8086	12.6646	0.316783	0.234082
12.8091	12.6651	0.316436	0.23644
12.8095	12.6655	0.315692	0.237771
12.81	12.666	0.318724	0.242678
12.8105	12.6665	0.319452	0.244032
12.8109	12.667	0.315759	0.242817
12.8114	12.6674	0.318008	0.245076
12.8119	12.6679	0.31906	0.250391
12.8124	12.6684	0.319844	0.253315
12.8128	12.6689	0.319187	0.253649
12.8133	12.6693	0.317587	0.254713
12.8138	12.6698	0.318996	0.256597
12.8142	12.6702	0.317834	0.258633
12.8147	12.6707	0.320259	0.265042
12.8152	12.6712	0.319271	0.265027
12.8157	12.6717	0.317487	0.262862
12.8161	12.6721	0.319564	0.265321
12.8166	12.6726	0.320328	0.268878
12.8171	12.6731	0.319487	0.270781
12.8176	12.6735	0.318443	0.271463
12.818	12.674	0.318974	0.272248
12.8185	12.6745	0.320868	0.272041
12.819	12.675	0.318671	0.272195
12.8194	12.6754	0.319721	0.275876
12.8199	12.6759	0.321476	0.277234
12.8204	12.6764	0.318659	0.274472
12.8209	12.6769	0.319281	0.274856
12.8213	12.6774	0.320523	0.278131
12.8218	12.6778	0.321115	0.279186
12.8223	12.6783	0.320293	0.278311
12.8227	12.6788	0.321375	0.276015
12.8232	12.6792	0.322535	0.275297
12.8237	12.6797	0.320335	0.274298
12.8242	12.6802	0.321214	0.275291
12.8246	12.6807	0.323093	0.273202
12.8251	12.6811	0.31991	0.267037
12.8256	12.6816	0.321564	0.265711
12.8261	12.6821	0.321748	0.264091
12.8265	12.6825	0.319848	0.263241
12.827	12.683	0.318908	0.259944
12.8275	12.6835	0.321223	0.255994
12.8279	12.684	0.321664	0.253168
12.8284	12.6844	0.318998	0.251267
12.8289	12.6849	0.319418	0.249819
12.8294	12.6854	0.321103	0.247626
12.8298	12.6859	0.320286	0.24194
12.8303	12.6864	0.321372	0.23888
12.8308	12.6868	0.322855	0.237903
12.8312	12.6873	0.321602	0.235885
12.8317	12.6878	0.322045	0.231138
12.8322	12.6883	0.323279	0.227609
12.8327	12.6887	0.323613	0.224747
12.8331	12.6892	0.322654	0.223533
12.8336	12.6896	0.32431	0.224926
12.8341	12.6901	0.322601	0.224018
12.8346	12.6906	0.321118	0.221662
12.835	12.6911	0.32346	0.225162
12.8355	12.6915	0.322785	0.228797
12.836	12.692	0.321988	0.232693
12.8364	12.6925	0.321777	0.23768
12.8369	12.6929	0.32288	0.241209
12.8374	12.6934	0.323034	0.245069
12.8379	12.6939	0.321948	0.249258
12.8383	12.6943	0.322382	0.25593
12.8388	12.6948	0.32502	0.258877
12.8393	12.6953	0.321696	0.258911
12.8397	12.6958	0.323307	0.260444
12.8402	12.6962	0.323498	0.263015
12.8407	12.6967	0.322144	0.26338
12.8412	12.6972	0.322708	0.261365
12.8416	12.6977	0.322334	0.258016
12.8421	12.6981	0.323493	0.256683
12.8426	12.6986	0.322188	0.254604
12.8431	12.6991	0.322423	0.25269
12.8435	12.6995	0.322675	0.24906
12.844	12.7	0.3219	0.243134
12.8445	12.7004	0.324007	0.239789
12.8449	12.7009	0.322823	0.237091
12.8454	12.7014	0.321275	0.23458
12.8459	12.7019	0.321278	0.230669
12.8464	12.7023	0.323244	0.228842
12.8468	12.7028	0.324302	0.226638
12.8473	12.7033	0.321368	0.226325
12.8478	12.7037	0.323414	0.230591
12.8482	12.7042	0.324275	0.234168
12.8487	12.7047	0.322669	0.23511
12.8492	12.7052	0.32245	0.239694
12.8497	12.7057	0.323739	0.249693
12.8501	12.7062	0.322892	0.25845
12.8506	12.7066	0.321675	0.2656
12.8511	12.7071	0.322866	0.27571
12.8516	12.7076	0.325434	0.289701
12.852	12.7081	0.324809	0.301306
12.8525	12.7085	0.324957	0.316889
12.853	12.709	0.326693	0.330545
12.8534	12.7095	0.325491	0.34106
12.8539	12.7099	0.324931	0.354158
12.8544	12.7104	0.325551	0.369807
12.8549	12.7109	0.324406	0.38169
12.8553	12.7114	0.323515	0.392114
12.8558	12.7118	0.324796	0.405672
12.8563	12.7123	0.326467	0.415502
12.8567	12.7128	0.32241	0.424724
12.8572	12.7132	0.324983	0.43819
12.8577	12.7137	0.324791	0.447177
12.8582	12.7142	0.324306	0.451609
12.8586	12.7147	0.326486	0.46098
12.8591	12.7151	0.325946	0.472776
12.8596	12.7156	0.324705	0.480971
12.8601	12.7161	0.323605	0.486061
12.8605	12.7166	0.325209	0.495919
12.861	12.717	0.323594	0.503737
12.8615	12.7175	0.324658	0.511292
12.8619	12.718	0.32554	0.516067
12.8624	12.7185	0.324556	0.51525
12.8629	12.7189	0.322544	0.510287
12.8634	12.7194	0.323353	0.510572
12.8638	12.7198	0.324687	0.507654
12.8643	12.7203	0.322749	0.501718
12.8648	12.7208	0.323025	0.501282
12.8652	12.7213	0.32353	0.503136
12.8657	12.7217	0.324894	0.511085
12.8662	12.7222	0.322791	0.520183
12.8667	12.7227	0.32399	0.5493
12.8671	12.7231	0.323686	0.579462
12.8676	12.7236	0.321511	0.612276
12.8681	12.7241	0.319325	0.66162
12.8686	12.7245	0.32044	0.719352
12.869	12.725	0.31823	0.764762
12.8695	12.7255	0.319137	0.804234
12.87	12.726	0.32064	0.841905
12.8704	12.7264	0.322014	0.871351
12.8709	12.7269	0.321224	0.891875
12.8714	12.7274	0.322168	0.913414
12.8719	12.7279	0.324849	0.928263
12.8723	12.7283	0.323484	0.928764
12.8728	12.7288	0.324247	0.937033
12.8733	12.7293	0.323578	0.944002
12.8737	12.7297	0.323252	0.951585
12.8742	12.7302	0.322967	0.948253
12.8747	12.7307	0.322409	0.954699
12.8752	12.7312	0.325072	0.957985
12.8756	12.7316	0.322232	0.957869
12.8761	12.7321	0.321949	0.966935
12.8766	12.7326	0.323439	0.969329
12.8771	12.733	0.323524	0.968355
12.8775	12.7335	0.323736	0.967727
12.878	12.734	0.326175	0.975927
12.8785	12.7345	0.325694	0.978426
12.8789	12.7349	0.324253	0.972151
12.8794	12.7354	0.327719	0.980864
12.8799	12.7359	0.326685	0.983411
12.8804	12.7364	0.324716	0.978452
12.8808	12.7369	0.324204	0.982565
12.8813	12.7374	0.326637	0.984393
12.8818	12.7378	0.324991	0.978597
12.8822	12.7383	0.324209	0.97641
12.8827	12.7388	0.325119	0.984603
12.8832	12.7392	0.32545	0.988412
12.8837	12.7397	0.326072	0.982314
12.8841	12.7402	0.325408	0.983613
12.8846	12.7406	0.327349	0.987199
12.8851	12.7411	0.325234	0.986721
12.8856	12.7416	0.326413	0.991528
12.886	12.7421	0.328079	0.994342
12.8865	12.7425	0.327277	0.990822
12.887	12.743	0.326916	0.988377
12.8874	12.7435	0.328608	0.990505
12.8879	12.7439	0.326773	0.995133
12.8884	12.7444	0.326861	0.991164
12.8889	12.7449	0.325937	0.989938
12.8893	12.7454	0.328151	0.991606
12.8898	12.7458	0.326164	0.990878
12.8903	12.7463	0.326076	0.999007
12.8907	12.7468	0.327951	0.995981
12.8912	12.7473	0.327026	0.993163
12.8917	12.7477	0.327576	0.996221
12.8922	12.7482	0.328044	1.00159
12.8926	12.7487	0.32835	1.00256
12.8931	12.7491	0.32732	0.996873
12.8936	12.7496	0.32842	0.999171
12.8941	12.7501	0.329036	0.998778
12.8945	12.7505	0.327171	0.994467
12.895	12.751	0.32578	0.998172
12.8955	12.7515	0.327362	0.99856
12.8959	12.752	0.326991	0.994852
12.8964	12.7524	0.326587	0.992323
12.8969	12.7529	0.326893	0.996293
12.8974	12.7533	0.327718	0.999649
12.8978	12.7538	0.325554	0.992946
12.8983	12.7543	0.328365	0.999074
12.8988	12.7548	0.328484	1.00177
