# 1304     AichiSR QXAFS
# Start     : 8.9544
# End       : 9.0544
# Dir       : Forward
# Points    : 300
# ScanTime  : 1.01549
# Date      : 13.04.23 22:24
# Ring Cur. : 25.4[mA]
12.7557	12.7557	0.404099	1.22907
12.7562	12.7552	0.401516	1.22783
12.7566	12.7548	0.402127	1.22631
12.7571	12.7543	0.402394	1.2243
12.7576	12.7538	0.402297	1.22597
12.7581	12.7533	0.403237	1.22766
12.7585	12.7529	0.403109	1.2279
12.759	12.7524	0.402476	1.22604
12.7595	12.752	0.401677	1.22395
12.7599	12.7515	0.403666	1.22468
12.7604	12.751	0.402878	1.22839
12.7609	12.7505	0.401113	1.2276
12.7614	12.7501	0.402042	1.22304
12.7618	12.7496	0.401788	1.22206
12.7623	12.7491	0.403443	1.22186
12.7628	12.7487	0.403598	1.22799
12.7632	12.7482	0.401968	1.22795
12.7637	12.7478	0.4036	1.22525
12.7642	12.7473	0.402585	1.22384
12.7647	12.7468	0.403172	1.22528
12.7651	12.7463	0.403283	1.22615
12.7656	12.7459	0.400519	1.22505
12.7661	12.7454	0.402478	1.22339
12.7666	12.7449	0.402413	1.22364
12.767	12.7444	0.403052	1.22241
12.7675	12.7439	0.403641	1.2228
12.768	12.7435	0.400762	1.22266
12.7684	12.743	0.401572	1.21971
12.7689	12.7425	0.401873	1.21992
12.7694	12.7421	0.40303	1.21887
12.7699	12.7416	0.403304	1.22198
12.7703	12.7411	0.402639	1.21976
12.7708	12.7407	0.402002	1.2172
12.7713	12.7402	0.401404	1.21466
12.7717	12.7397	0.402521	1.21621
12.7722	12.7392	0.402682	1.2174
12.7727	12.7388	0.400222	1.21624
12.7732	12.7383	0.400816	1.21437
12.7736	12.7378	0.401372	1.21507
12.7741	12.7374	0.401591	1.21259
12.7746	12.7369	0.403137	1.21429
12.7751	12.7364	0.400866	1.21526
12.7755	12.7359	0.400075	1.2082
12.776	12.7355	0.401737	1.20889
12.7765	12.735	0.40182	1.20721
12.7769	12.7345	0.402045	1.20852
12.7774	12.734	0.401854	1.20557
12.7779	12.7335	0.400718	1.20285
12.7784	12.7331	0.401601	1.19873
12.7788	12.7326	0.402098	1.19956
12.7793	12.7321	0.401031	1.20014
12.7798	12.7317	0.399257	1.19657
12.7802	12.7312	0.399062	1.18772
12.7807	12.7307	0.401136	1.18569
12.7812	12.7302	0.401636	1.18319
12.7817	12.7298	0.40046	1.18048
12.7821	12.7293	0.399477	1.17704
12.7826	12.7288	0.398638	1.16522
12.7831	12.7284	0.400309	1.16242
12.7836	12.7279	0.400124	1.15553
12.784	12.7274	0.398868	1.1486
12.7845	12.7269	0.397665	1.13304
12.785	12.7265	0.397873	1.11408
12.7854	12.726	0.399696	1.09528
12.7859	12.7255	0.395467	1.06475
12.7864	12.725	0.394589	1.029
12.7869	12.7246	0.393945	0.982841
12.7873	12.7241	0.393588	0.921016
12.7878	12.7236	0.395713	0.862005
12.7883	12.7231	0.398658	0.805453
12.7887	12.7227	0.397848	0.752015
12.7892	12.7222	0.398226	0.698516
12.7897	12.7218	0.399661	0.662536
12.7902	12.7213	0.399603	0.638768
12.7906	12.7208	0.401026	0.625797
12.7911	12.7203	0.399321	0.621005
12.7916	12.7199	0.398828	0.61913
12.7921	12.7194	0.399536	0.619911
12.7925	12.7189	0.398909	0.623683
12.793	12.7185	0.397089	0.629168
12.7935	12.718	0.399213	0.633325
12.7939	12.7175	0.398363	0.634662
12.7944	12.7171	0.397511	0.627451
12.7949	12.7166	0.4007	0.620588
12.7954	12.7161	0.397557	0.614188
12.7958	12.7156	0.399501	0.606465
12.7963	12.7151	0.398805	0.59442
12.7968	12.7147	0.397585	0.580717
12.7972	12.7142	0.399626	0.56916
12.7977	12.7137	0.397646	0.560173
12.7982	12.7132	0.398158	0.55281
12.7987	12.7128	0.398494	0.541547
12.7991	12.7123	0.396361	0.528485
12.7996	12.7119	0.399518	0.516421
12.8001	12.7114	0.397599	0.504401
12.8006	12.7109	0.3972	0.492451
12.801	12.7104	0.39753	0.477863
12.8015	12.71	0.397207	0.45894
12.802	12.7095	0.3973	0.443097
12.8024	12.709	0.399177	0.428349
12.8029	12.7086	0.397494	0.413285
12.8034	12.7081	0.397791	0.394929
12.8039	12.7076	0.397235	0.377409
12.8043	12.7071	0.399132	0.361299
12.8048	12.7067	0.398016	0.347758
12.8053	12.7062	0.398345	0.335557
12.8057	12.7057	0.397281	0.322058
12.8062	12.7052	0.396264	0.309878
12.8067	12.7047	0.398691	0.3011
12.8072	12.7042	0.398094	0.293029
12.8076	12.7038	0.396987	0.287605
12.8081	12.7033	0.395593	0.281622
12.8086	12.7028	0.395353	0.278557
12.8091	12.7024	0.397168	0.27789
12.8095	12.7019	0.396347	0.279999
12.81	12.7014	0.39608	0.283332
12.8105	12.701	0.396785	0.28423
12.8109	12.7005	0.39518	0.287295
12.8114	12.7	0.39784	0.292234
12.8119	12.6995	0.397485	0.297045
12.8124	12.6991	0.396199	0.302755
12.8128	12.6986	0.396698	0.305946
12.8133	12.6982	0.395553	0.309174
12.8138	12.6977	0.396738	0.313376
12.8142	12.6972	0.395889	0.317437
12.8147	12.6967	0.396704	0.319293
12.8152	12.6963	0.395794	0.321052
12.8157	12.6958	0.396621	0.318975
12.8161	12.6953	0.397071	0.319932
12.8166	12.6948	0.396215	0.319491
12.8171	12.6943	0.396118	0.318849
12.8176	12.6939	0.393378	0.31302
12.818	12.6934	0.393657	0.307607
12.8185	12.6929	0.396197	0.303232
12.819	12.6925	0.395223	0.299032
12.8194	12.692	0.393773	0.293028
12.8199	12.6916	0.394859	0.28559
12.8204	12.6911	0.393642	0.281187
12.8209	12.6906	0.395154	0.27589
12.8213	12.6901	0.394884	0.274715
12.8218	12.6897	0.393604	0.273721
12.8223	12.6892	0.394795	0.271456
12.8227	12.6887	0.393286	0.271662
12.8232	12.6883	0.396639	0.272301
12.8237	12.6878	0.395692	0.276893
12.8242	12.6873	0.392727	0.279527
12.8246	12.6868	0.394673	0.281751
12.8251	12.6864	0.391821	0.285725
12.8256	12.6859	0.392962	0.290652
12.8261	12.6854	0.393287	0.295307
12.8265	12.6849	0.391964	0.300082
12.827	12.6844	0.392898	0.302152
12.8275	12.684	0.390489	0.30335
12.8279	12.6835	0.39107	0.307439
12.8284	12.683	0.391574	0.311877
12.8289	12.6826	0.391588	0.313751
12.8294	12.6821	0.392468	0.316717
12.8298	12.6816	0.392842	0.317975
12.8303	12.6812	0.392537	0.322526
12.8308	12.6807	0.392833	0.327069
12.8312	12.6802	0.392517	0.330067
12.8317	12.6797	0.390895	0.331031
12.8322	12.6793	0.391374	0.332625
12.8327	12.6788	0.392005	0.334804
12.8331	12.6783	0.394051	0.337586
12.8336	12.6779	0.390961	0.339209
12.8341	12.6774	0.393379	0.338411
12.8346	12.6769	0.391993	0.338406
12.835	12.6764	0.392837	0.336919
12.8355	12.6759	0.392727	0.338512
12.836	12.6755	0.391808	0.338994
12.8364	12.675	0.391917	0.334853
12.8369	12.6745	0.392175	0.334531
12.8374	12.674	0.39193	0.335082
12.8379	12.6736	0.392493	0.33434
12.8383	12.6731	0.390512	0.333603
12.8388	12.6726	0.392242	0.33115
12.8393	12.6722	0.389949	0.329142
12.8397	12.6717	0.392442	0.326994
12.8402	12.6712	0.392902	0.328093
12.8407	12.6707	0.39097	0.325217
12.8412	12.6703	0.389039	0.320595
12.8416	12.6698	0.390116	0.318546
12.8421	12.6693	0.390383	0.316628
12.8426	12.6689	0.391432	0.315889
12.8431	12.6684	0.390348	0.313255
12.8435	12.668	0.390018	0.309968
12.844	12.6675	0.390921	0.306018
12.8445	12.667	0.390973	0.304152
12.8449	12.6665	0.392775	0.302433
12.8454	12.6661	0.389408	0.300276
12.8459	12.6656	0.390007	0.296703
12.8464	12.6651	0.388472	0.293409
12.8468	12.6646	0.389482	0.291593
12.8473	12.6641	0.389622	0.292222
12.8478	12.6637	0.388583	0.28885
12.8482	12.6632	0.389332	0.285322
12.8487	12.6627	0.389316	0.283117
12.8492	12.6623	0.389343	0.280743
12.8497	12.6618	0.389717	0.280947
12.8501	12.6614	0.387763	0.278002
12.8506	12.6609	0.388274	0.276091
12.8511	12.6604	0.388266	0.273293
12.8516	12.6599	0.388853	0.271959
12.852	12.6595	0.387877	0.271601
12.8525	12.659	0.387315	0.27117
12.853	12.6585	0.387877	0.26732
12.8534	12.6581	0.388708	0.266096
12.8539	12.6576	0.391728	0.267737
12.8544	12.6571	0.391166	0.270471
12.8549	12.6566	0.387609	0.2682
12.8553	12.6562	0.387323	0.266821
12.8558	12.6557	0.387951	0.266076
12.8563	12.6552	0.387502	0.268015
12.8567	12.6547	0.387737	0.270694
12.8572	12.6542	0.387166	0.270835
12.8577	12.6538	0.38649	0.27352
12.8582	12.6533	0.388345	0.27502
12.8586	12.6528	0.388429	0.277034
12.8591	12.6524	0.387459	0.280563
12.8596	12.6519	0.387286	0.281809
12.8601	12.6514	0.387383	0.282943
12.8605	12.6509	0.387564	0.285113
12.861	12.6505	0.388638	0.288972
12.8615	12.65	0.388065	0.292116
12.8619	12.6495	0.385129	0.293558
12.8624	12.6491	0.387016	0.294037
12.8629	12.6486	0.387434	0.296982
12.8634	12.6481	0.385744	0.300114
12.8638	12.6476	0.386422	0.303441
12.8643	12.6472	0.385902	0.303624
12.8648	12.6467	0.383988	0.30313
12.8652	12.6462	0.383572	0.304276
12.8657	12.6457	0.385031	0.307597
12.8662	12.6452	0.383739	0.307826
12.8667	12.6448	0.382845	0.309513
12.8671	12.6443	0.384015	0.309865
12.8676	12.6438	0.385906	0.311233
12.8681	12.6433	0.386737	0.31312
12.8686	12.6429	0.388924	0.315118
12.869	12.6424	0.38658	0.315831
12.8695	12.642	0.387392	0.315004
12.87	12.6415	0.388237	0.31649
12.8704	12.641	0.388106	0.316825
12.8709	12.6405	0.389173	0.318763
12.8714	12.6401	0.388047	0.316829
12.8719	12.6396	0.387891	0.315219
12.8723	12.6391	0.38883	0.315292
12.8728	12.6387	0.388078	0.315988
12.8733	12.6382	0.388582	0.315566
12.8737	12.6377	0.387978	0.316221
12.8742	12.6373	0.387838	0.313781
12.8747	12.6368	0.389892	0.31246
12.8752	12.6363	0.388286	0.313192
12.8756	12.6358	0.388061	0.314205
12.8761	12.6354	0.388651	0.312046
12.8766	12.6349	0.388655	0.309316
12.8771	12.6344	0.390639	0.309902
12.8775	12.6339	0.387557	0.309979
12.878	12.6335	0.389689	0.310708
12.8785	12.633	0.388612	0.310048
12.8789	12.6325	0.39003	0.309768
12.8794	12.6321	0.389559	0.309185
12.8799	12.6316	0.389585	0.310493
12.8804	12.6311	0.390084	0.311194
12.8808	12.6306	0.388743	0.310975
12.8813	12.6302	0.38797	0.3097
12.8818	12.6297	0.38971	0.310518
12.8822	12.6292	0.389243	0.31088
12.8827	12.6288	0.388924	0.314262
12.8832	12.6283	0.388507	0.310942
12.8837	12.6278	0.387551	0.309973
12.8841	12.6274	0.390861	0.311292
12.8846	12.6269	0.389437	0.311933
12.8851	12.6264	0.38949	0.313001
12.8856	12.6259	0.389314	0.310152
12.886	12.6254	0.389029	0.307459
12.8865	12.625	0.390127	0.308087
12.887	12.6245	0.390121	0.308743
12.8874	12.624	0.388753	0.308663
12.8879	12.6235	0.38944	0.307901
12.8884	12.6231	0.388792	0.305081
12.8889	12.6226	0.390397	0.304673
12.8893	12.6221	0.389865	0.305374
12.8898	12.6217	0.390441	0.305787
12.8903	12.6212	0.389677	0.304525
12.8907	12.6207	0.389053	0.302635
12.8912	12.6202	0.389848	0.301357
12.8917	12.6198	0.389628	0.303842
12.8922	12.6193	0.389159	0.303154
12.8926	12.6188	0.38821	0.302441
12.8931	12.6184	0.388699	0.30299
12.8936	12.6179	0.39021	0.301762
12.8941	12.6174	0.388874	0.304444
12.8945	12.6169	0.388819	0.304342
12.895	12.6165	0.388068	0.302239
12.8955	12.616	0.389405	0.301811
12.8959	12.6155	0.390115	0.299609
12.8964	12.615	0.388675	0.301584
12.8969	12.6145	0.388201	0.301075
12.8974	12.6141	0.389883	0.301882
12.8978	12.6136	0.38816	0.29879
12.8983	12.6131	0.389706	0.299187
12.8988	12.6127	0.391032	0.300231
