# 1304     AichiSR QXAFS
# Start     : 8.9544
# End       : 9.0544
# Dir       : Backward
# Points    : 300
# ScanTime  : 1.01549
# Date      : 13.04.23 22:24
# Ring Cur. : 25.5[mA]
12.7557	12.6118	0.303217	0.230713
12.7562	12.6122	0.303331	0.2335
12.7566	12.6127	0.303721	0.235519
12.7571	12.6131	0.304577	0.233292
12.7576	12.6136	0.306644	0.233569
12.7581	12.6141	0.305611	0.237079
12.7585	12.6145	0.30844	0.238507
12.759	12.615	0.304404	0.237751
12.7595	12.6155	0.30547	0.236653
12.7599	12.616	0.30829	0.23818
12.7604	12.6165	0.306173	0.239049
12.7609	12.6169	0.303942	0.238295
12.7614	12.6174	0.305262	0.239787
12.7618	12.6179	0.30875	0.240208
12.7623	12.6184	0.305726	0.236926
12.7628	12.6188	0.305868	0.237853
12.7632	12.6193	0.307606	0.240925
12.7637	12.6198	0.308345	0.241351
12.7642	12.6202	0.305483	0.238611
12.7647	12.6207	0.309022	0.240589
12.7651	12.6212	0.30863	0.240315
12.7656	12.6217	0.30833	0.241345
12.7661	12.6221	0.308131	0.242517
12.7666	12.6226	0.306802	0.240957
12.767	12.6231	0.309122	0.241325
12.7675	12.6235	0.306742	0.242385
12.768	12.624	0.309973	0.243867
12.7684	12.6245	0.306606	0.243429
12.7689	12.625	0.307096	0.243043
12.7694	12.6254	0.31084	0.245013
12.7699	12.6259	0.306934	0.246219
12.7703	12.6264	0.308401	0.246372
12.7708	12.6269	0.308974	0.248426
12.7713	12.6274	0.309525	0.247568
12.7717	12.6278	0.308372	0.245623
12.7722	12.6283	0.308526	0.24637
12.7727	12.6288	0.309778	0.249325
12.7732	12.6292	0.310409	0.24999
12.7736	12.6297	0.30866	0.249027
12.7741	12.6302	0.312032	0.249408
12.7746	12.6306	0.310589	0.249308
12.7751	12.6311	0.308657	0.248957
12.7755	12.6316	0.310557	0.248741
12.776	12.6321	0.31092	0.2479
12.7765	12.6325	0.312382	0.248061
12.7769	12.633	0.310604	0.248092
12.7774	12.6335	0.310463	0.249953
12.7779	12.6339	0.311172	0.248453
12.7784	12.6344	0.310792	0.247288
12.7788	12.6349	0.31321	0.249793
12.7793	12.6354	0.31061	0.249081
12.7798	12.6358	0.310057	0.249142
12.7802	12.6363	0.313026	0.251935
12.7807	12.6368	0.311933	0.250024
12.7812	12.6373	0.313142	0.250384
12.7817	12.6377	0.313462	0.253053
12.7821	12.6382	0.312521	0.255208
12.7826	12.6387	0.31233	0.255339
12.7831	12.6391	0.310977	0.25115
12.7836	12.6396	0.314738	0.254938
12.784	12.6401	0.313069	0.255653
12.7845	12.6405	0.311537	0.255771
12.785	12.641	0.313896	0.256291
12.7854	12.6415	0.315093	0.256522
12.7859	12.6419	0.313226	0.254678
12.7864	12.6424	0.313082	0.257261
12.7869	12.6429	0.313537	0.257166
12.7873	12.6433	0.312039	0.254897
12.7878	12.6438	0.312024	0.253733
12.7883	12.6443	0.315423	0.252525
12.7887	12.6447	0.313281	0.252731
12.7892	12.6452	0.310649	0.252285
12.7897	12.6457	0.311065	0.251977
12.7902	12.6462	0.31111	0.250635
12.7906	12.6467	0.313244	0.24871
12.7911	12.6471	0.311863	0.24888
12.7916	12.6476	0.31292	0.248671
12.7921	12.6481	0.313172	0.247591
12.7925	12.6486	0.313764	0.243864
12.793	12.649	0.318624	0.244561
12.7935	12.6495	0.316891	0.24235
12.7939	12.65	0.314314	0.240522
12.7944	12.6505	0.313917	0.239212
12.7949	12.6509	0.317506	0.238084
12.7954	12.6514	0.317127	0.234456
12.7958	12.6519	0.316272	0.233502
12.7963	12.6524	0.315706	0.232485
12.7968	12.6528	0.315289	0.229029
12.7972	12.6533	0.314999	0.22617
12.7977	12.6538	0.319577	0.226798
12.7982	12.6542	0.316505	0.225767
12.7987	12.6547	0.315168	0.224139
12.7991	12.6552	0.317356	0.222881
12.7996	12.6557	0.317943	0.220935
12.8001	12.6562	0.317265	0.21906
12.8006	12.6566	0.318991	0.219371
12.801	12.6571	0.317176	0.220829
12.8015	12.6576	0.316459	0.218687
12.802	12.6581	0.316116	0.217835
12.8024	12.6585	0.318574	0.219244
12.8029	12.659	0.31715	0.219538
12.8034	12.6595	0.317308	0.220749
12.8039	12.6599	0.316605	0.221172
12.8043	12.6604	0.320116	0.221811
12.8048	12.6609	0.319658	0.224703
12.8053	12.6613	0.319255	0.226543
12.8057	12.6618	0.319333	0.228913
12.8062	12.6623	0.317756	0.22947
12.8067	12.6627	0.319666	0.229529
12.8072	12.6632	0.319554	0.231597
12.8076	12.6637	0.31826	0.233798
12.8081	12.6641	0.318154	0.236803
12.8086	12.6646	0.318554	0.236084
12.8091	12.6651	0.319152	0.238326
12.8095	12.6656	0.320231	0.239956
12.81	12.666	0.319144	0.243843
12.8105	12.6665	0.320343	0.246613
12.8109	12.667	0.318602	0.245437
12.8114	12.6675	0.318973	0.247385
12.8119	12.6679	0.322158	0.251966
12.8124	12.6684	0.320986	0.254275
12.8128	12.6689	0.316804	0.255213
12.8133	12.6693	0.318269	0.256356
12.8138	12.6698	0.320806	0.258856
12.8142	12.6703	0.31902	0.259451
12.8147	12.6707	0.319245	0.26255
12.8152	12.6712	0.32036	0.266114
12.8157	12.6717	0.318758	0.265611
12.8161	12.6722	0.318137	0.266029
12.8166	12.6726	0.322022	0.269726
12.8171	12.6731	0.320934	0.272717
12.8176	12.6736	0.319253	0.272008
12.818	12.674	0.319746	0.273101
12.8185	12.6745	0.321965	0.272617
12.819	12.675	0.321491	0.274002
12.8194	12.6755	0.319309	0.276136
12.8199	12.6759	0.320767	0.278433
12.8204	12.6764	0.319585	0.274884
12.8209	12.6769	0.32015	0.274844
12.8213	12.6774	0.323028	0.277478
12.8218	12.6779	0.320815	0.278635
12.8223	12.6783	0.318183	0.275966
12.8227	12.6788	0.319796	0.276334
12.8232	12.6793	0.321594	0.276098
12.8237	12.6797	0.321032	0.273956
12.8242	12.6802	0.321253	0.274019
12.8246	12.6807	0.321803	0.273141
12.8251	12.6812	0.320491	0.268692
12.8256	12.6816	0.319936	0.266276
12.8261	12.6821	0.320553	0.263807
12.8265	12.6826	0.321874	0.262926
12.827	12.683	0.318044	0.258941
12.8275	12.6835	0.318586	0.255011
12.8279	12.684	0.319218	0.251808
12.8284	12.6844	0.320476	0.251232
12.8289	12.6849	0.321232	0.250539
12.8294	12.6854	0.320788	0.248152
12.8298	12.6859	0.31978	0.244062
12.8303	12.6864	0.320784	0.239199
12.8308	12.6868	0.322189	0.236651
12.8312	12.6873	0.323572	0.235032
12.8317	12.6878	0.321027	0.23091
12.8322	12.6883	0.321295	0.227983
12.8327	12.6887	0.322487	0.224223
12.8331	12.6892	0.322695	0.222133
12.8336	12.6897	0.323377	0.223226
12.8341	12.6901	0.323366	0.223027
12.8346	12.6906	0.321474	0.222726
12.835	12.6911	0.322145	0.223736
12.8355	12.6916	0.324146	0.228261
12.836	12.692	0.323855	0.233227
12.8364	12.6925	0.320719	0.237609
12.8369	12.6929	0.321521	0.240891
12.8374	12.6934	0.322927	0.245624
12.8379	12.6939	0.322644	0.250862
12.8383	12.6943	0.323584	0.255443
12.8388	12.6948	0.321833	0.258648
12.8393	12.6953	0.322046	0.257026
12.8397	12.6958	0.321364	0.259197
12.8402	12.6963	0.322552	0.261967
12.8407	12.6967	0.322934	0.262061
12.8412	12.6972	0.318877	0.261336
12.8416	12.6977	0.320445	0.258275
12.8421	12.6982	0.322432	0.256302
12.8426	12.6986	0.321239	0.253472
12.8431	12.6991	0.322076	0.251993
12.8435	12.6995	0.321398	0.24798
12.844	12.7	0.321235	0.24231
12.8445	12.7005	0.322099	0.238645
12.8449	12.701	0.323282	0.236269
12.8454	12.7014	0.321728	0.234889
12.8459	12.7019	0.320109	0.229426
12.8464	12.7024	0.321144	0.226988
12.8468	12.7028	0.323392	0.22763
12.8473	12.7033	0.321014	0.225789
12.8478	12.7038	0.319764	0.228446
12.8482	12.7042	0.321251	0.232407
12.8487	12.7047	0.320128	0.234137
12.8492	12.7052	0.321393	0.240104
12.8497	12.7057	0.324376	0.24973
12.8501	12.7062	0.324255	0.25878
12.8506	12.7067	0.321216	0.266475
12.8511	12.7071	0.321786	0.276173
12.8516	12.7076	0.326526	0.289362
12.852	12.7081	0.322307	0.300769
12.8525	12.7086	0.322217	0.314169
12.853	12.709	0.323813	0.330714
12.8534	12.7095	0.323553	0.339606
12.8539	12.71	0.324578	0.353686
12.8544	12.7104	0.324382	0.368726
12.8549	12.7109	0.325124	0.382296
12.8553	12.7114	0.322118	0.393034
12.8558	12.7119	0.321627	0.403535
12.8563	12.7123	0.323818	0.414401
12.8567	12.7128	0.323027	0.427161
12.8572	12.7132	0.323347	0.437027
12.8577	12.7137	0.323572	0.444944
12.8582	12.7142	0.321032	0.448267
12.8586	12.7147	0.324315	0.459643
12.8591	12.7152	0.324052	0.470692
12.8596	12.7156	0.322693	0.477334
12.8601	12.7161	0.322126	0.486511
12.8605	12.7166	0.321274	0.492736
12.861	12.7171	0.322436	0.501468
12.8615	12.7175	0.322015	0.508065
12.8619	12.718	0.321813	0.513724
12.8624	12.7185	0.321681	0.514316
12.8629	12.7189	0.319162	0.507372
12.8634	12.7194	0.323525	0.507202
12.8638	12.7199	0.322359	0.503426
12.8643	12.7203	0.322509	0.501821
12.8648	12.7208	0.32025	0.498523
12.8652	12.7213	0.32015	0.497712
12.8657	12.7218	0.322291	0.506808
12.8662	12.7222	0.321448	0.523427
12.8667	12.7227	0.320477	0.546243
12.8671	12.7231	0.318284	0.572221
12.8676	12.7236	0.318387	0.614696
12.8681	12.7241	0.318541	0.665502
12.8686	12.7245	0.317465	0.716333
12.869	12.725	0.315587	0.764515
12.8695	12.7255	0.314592	0.799981
12.87	12.726	0.316383	0.836248
12.8704	12.7265	0.321331	0.87051
12.8709	12.7269	0.32312	0.900243
12.8714	12.7274	0.320901	0.906792
12.8719	12.7279	0.320772	0.920016
12.8723	12.7284	0.319858	0.921269
12.8728	12.7288	0.321393	0.927329
12.8733	12.7293	0.323736	0.94304
12.8737	12.7298	0.321304	0.945103
12.8742	12.7302	0.318992	0.940088
12.8747	12.7307	0.318975	0.943663
12.8752	12.7312	0.323251	0.950931
12.8756	12.7317	0.320271	0.95149
12.8761	12.7321	0.318726	0.954695
12.8766	12.7326	0.32081	0.960748
12.8771	12.7331	0.319899	0.956913
12.8775	12.7335	0.321869	0.956594
12.878	12.734	0.323701	0.967124
12.8785	12.7345	0.323889	0.970209
12.8789	12.735	0.320729	0.965848
12.8794	12.7355	0.321809	0.968724
12.8799	12.7359	0.324835	0.974936
12.8804	12.7364	0.323083	0.974276
12.8808	12.7369	0.321923	0.974614
12.8813	12.7374	0.322859	0.978565
12.8818	12.7379	0.321006	0.967405
12.8822	12.7383	0.323661	0.973617
12.8827	12.7388	0.325022	0.981123
12.8832	12.7393	0.324184	0.983709
12.8837	12.7397	0.322076	0.976624
12.8841	12.7402	0.323637	0.979798
12.8846	12.7407	0.327672	0.986828
12.8851	12.7411	0.325754	0.988698
12.8856	12.7416	0.324739	0.991455
12.886	12.7421	0.324813	0.988368
12.8865	12.7426	0.326129	0.988368
12.887	12.743	0.326955	0.988813
12.8874	12.7435	0.327514	0.993827
12.8879	12.744	0.326902	0.996651
12.8884	12.7444	0.32658	0.993123
12.8889	12.7449	0.326873	0.990715
12.8893	12.7454	0.328974	0.990436
12.8898	12.7459	0.326206	0.993561
12.8903	12.7463	0.326361	0.997307
12.8907	12.7468	0.328514	0.997334
12.8912	12.7473	0.32664	0.998818
12.8917	12.7478	0.329215	0.99841
12.8922	12.7482	0.329788	1.00878
12.8926	12.7487	0.328285	1.00732
12.8931	12.7492	0.326807	0.995539
12.8936	12.7496	0.329548	1.00371
12.8941	12.7501	0.330203	1.0043
12.8945	12.7506	0.329306	1.00042
12.895	12.751	0.328288	1.00213
12.8955	12.7515	0.329991	1.00455
12.8959	12.752	0.328232	1.00125
12.8964	12.7524	0.328915	1.00118
12.8969	12.7529	0.331222	1.00738
12.8974	12.7534	0.328607	1.00644
12.8978	12.7538	0.329004	1.00438
12.8983	12.7543	0.33095	1.00905
12.8988	12.7548	0.332993	1.00954
