# 1304     AichiSR QXAFS
# Start     : 8.9544
# End       : 9.0544
# Dir       : Forward
# Points    : 300
# ScanTime  : 1.01549
# Date      : 13.04.23 22:22
# Ring Cur. : 25.5[mA]
12.7557	12.7557	0.403259	1.22548
12.7562	12.7552	0.4028	1.22985
12.7566	12.7548	0.401496	1.22814
12.7571	12.7543	0.403355	1.22777
12.7576	12.7538	0.401841	1.22417
12.7581	12.7533	0.403085	1.22339
12.7585	12.7529	0.403208	1.22889
12.759	12.7524	0.401533	1.22878
12.7595	12.752	0.402512	1.22559
12.7599	12.7515	0.402459	1.22228
12.7604	12.751	0.403079	1.22512
12.7609	12.7505	0.402572	1.22661
12.7614	12.7501	0.40018	1.22373
12.7618	12.7496	0.400322	1.22344
12.7623	12.7491	0.401358	1.22043
12.7628	12.7487	0.40209	1.22088
12.7632	12.7482	0.401905	1.22157
12.7637	12.7477	0.401444	1.22317
12.7642	12.7473	0.400887	1.21988
12.7647	12.7468	0.401475	1.21693
12.7651	12.7463	0.401775	1.22072
12.7656	12.7458	0.401356	1.22043
12.7661	12.7454	0.400523	1.22352
12.7666	12.7449	0.401205	1.21831
12.767	12.7444	0.401783	1.21546
12.7675	12.7439	0.401522	1.21609
12.768	12.7435	0.401647	1.21928
12.7684	12.743	0.400396	1.219
12.7689	12.7425	0.399196	1.21452
12.7694	12.7421	0.399902	1.21323
12.7699	12.7416	0.4028	1.21595
12.7703	12.7411	0.400317	1.216
12.7708	12.7406	0.40039	1.21712
12.7713	12.7402	0.400569	1.21359
12.7717	12.7397	0.400883	1.2113
12.7722	12.7392	0.400008	1.21081
12.7727	12.7388	0.401552	1.21504
12.7732	12.7383	0.398935	1.21178
12.7736	12.7378	0.400956	1.20651
12.7741	12.7374	0.400033	1.20527
12.7746	12.7369	0.401193	1.20763
12.7751	12.7364	0.400672	1.20792
12.7755	12.7359	0.399389	1.20773
12.776	12.7354	0.399105	1.20511
12.7765	12.7349	0.399884	1.20005
12.7769	12.7345	0.398895	1.1976
12.7774	12.734	0.401127	1.20129
12.7779	12.7335	0.397915	1.19624
12.7784	12.733	0.398603	1.19149
12.7788	12.7326	0.398926	1.19119
12.7793	12.7321	0.398874	1.19039
12.7798	12.7317	0.401249	1.18958
12.7802	12.7312	0.398151	1.1851
12.7807	12.7307	0.399477	1.18066
12.7812	12.7302	0.397766	1.17526
12.7817	12.7297	0.399533	1.17271
12.7821	12.7293	0.399657	1.17165
12.7826	12.7288	0.397103	1.16695
12.7831	12.7284	0.396494	1.15455
12.7836	12.7279	0.396782	1.14779
12.784	12.7274	0.398571	1.13904
12.7845	12.7269	0.39804	1.12974
12.785	12.7265	0.396194	1.1117
12.7854	12.726	0.393665	1.08541
12.7859	12.7255	0.392776	1.05618
12.7864	12.725	0.393897	1.01985
12.7869	12.7245	0.393138	0.978719
12.7873	12.7241	0.39228	0.922551
12.7878	12.7236	0.393194	0.856132
12.7883	12.7231	0.394287	0.794619
12.7887	12.7227	0.396182	0.74167
12.7892	12.7222	0.397607	0.695164
12.7897	12.7218	0.396227	0.660535
12.7902	12.7213	0.397519	0.635305
12.7906	12.7208	0.396475	0.619442
12.7911	12.7203	0.397349	0.614734
12.7916	12.7199	0.397776	0.617842
12.7921	12.7194	0.39583	0.617542
12.7925	12.7189	0.396554	0.621213
12.793	12.7185	0.397207	0.623995
12.7935	12.718	0.395361	0.630207
12.7939	12.7175	0.396538	0.631848
12.7944	12.7171	0.395274	0.62904
12.7949	12.7166	0.396494	0.619197
12.7954	12.7161	0.395732	0.610819
12.7958	12.7156	0.395313	0.5981
12.7963	12.7151	0.395878	0.590903
12.7968	12.7147	0.396024	0.579321
12.7972	12.7142	0.393684	0.566031
12.7977	12.7137	0.394761	0.555095
12.7982	12.7132	0.396176	0.548202
12.7987	12.7128	0.395532	0.537877
12.7991	12.7123	0.393435	0.526352
12.7996	12.7118	0.396172	0.513881
12.8001	12.7114	0.39491	0.497367
12.8006	12.7109	0.395328	0.485592
12.801	12.7104	0.395642	0.474153
12.8015	12.7099	0.393712	0.456346
12.802	12.7095	0.39309	0.438742
12.8024	12.709	0.394606	0.421261
12.8029	12.7085	0.394747	0.407644
12.8034	12.7081	0.394875	0.393252
12.8039	12.7076	0.393622	0.373836
12.8043	12.7071	0.393749	0.358391
12.8048	12.7066	0.392912	0.343037
12.8053	12.7062	0.393846	0.330067
12.8057	12.7057	0.395452	0.320866
12.8062	12.7052	0.393462	0.308288
12.8067	12.7047	0.393382	0.297627
12.8072	12.7042	0.39431	0.28985
12.8076	12.7038	0.394101	0.284785
12.8081	12.7033	0.394576	0.281402
12.8086	12.7028	0.393231	0.278359
12.8091	12.7024	0.392629	0.276606
12.8095	12.7019	0.393815	0.275954
12.81	12.7014	0.393782	0.278784
12.8105	12.7009	0.392499	0.282684
12.8109	12.7005	0.391948	0.286053
12.8114	12.7	0.390794	0.288351
12.8119	12.6995	0.393225	0.293169
12.8124	12.6991	0.392737	0.297803
12.8128	12.6986	0.391686	0.305276
12.8133	12.6981	0.391112	0.307076
12.8138	12.6977	0.392029	0.308849
12.8142	12.6972	0.394491	0.315112
12.8147	12.6967	0.396101	0.318505
12.8152	12.6962	0.393574	0.319221
12.8157	12.6958	0.39317	0.319059
12.8161	12.6953	0.390835	0.314995
12.8166	12.6948	0.393005	0.314816
12.8171	12.6943	0.393058	0.314322
12.8176	12.6939	0.392264	0.311194
12.818	12.6934	0.391174	0.306842
12.8185	12.6929	0.391409	0.299321
12.819	12.6925	0.392886	0.295562
12.8194	12.692	0.390724	0.28974
12.8199	12.6915	0.39122	0.28451
12.8204	12.6911	0.391747	0.278678
12.8209	12.6906	0.3905	0.272481
12.8213	12.6901	0.391426	0.269306
12.8218	12.6897	0.391877	0.270225
12.8223	12.6892	0.390526	0.27071
12.8227	12.6887	0.390372	0.269472
12.8232	12.6883	0.390834	0.270238
12.8237	12.6878	0.392854	0.272811
12.8242	12.6873	0.391515	0.277086
12.8246	12.6868	0.390738	0.281834
12.8251	12.6864	0.389277	0.284006
12.8256	12.6859	0.390015	0.2883
12.8261	12.6854	0.390086	0.291148
12.8265	12.6849	0.389187	0.297109
12.827	12.6844	0.389639	0.302407
12.8275	12.684	0.389297	0.30464
12.8279	12.6835	0.389798	0.305765
12.8284	12.683	0.390636	0.309947
12.8289	12.6826	0.3907	0.312574
12.8294	12.6821	0.392038	0.316535
12.8298	12.6816	0.390905	0.319955
12.8303	12.6811	0.390414	0.32227
12.8308	12.6807	0.393139	0.325746
12.8312	12.6802	0.393399	0.329195
12.8317	12.6797	0.39297	0.331957
12.8322	12.6793	0.392912	0.335462
12.8327	12.6788	0.39167	0.334717
12.8331	12.6783	0.394305	0.336569
12.8336	12.6779	0.394026	0.338419
12.8341	12.6774	0.3935	0.339728
12.8346	12.6769	0.393737	0.339423
12.835	12.6764	0.392388	0.338647
12.8355	12.6759	0.394839	0.337738
12.836	12.6755	0.395479	0.338907
12.8364	12.675	0.393301	0.339168
12.8369	12.6745	0.394234	0.336642
12.8374	12.674	0.394049	0.335169
12.8379	12.6735	0.395921	0.334831
12.8383	12.6731	0.395127	0.333869
12.8388	12.6726	0.39216	0.33368
12.8393	12.6722	0.393238	0.331734
12.8397	12.6717	0.392895	0.326776
12.8402	12.6712	0.395363	0.327248
12.8407	12.6707	0.394708	0.326685
12.8412	12.6703	0.392903	0.325569
12.8416	12.6698	0.393638	0.322505
12.8421	12.6693	0.392241	0.318608
12.8426	12.6689	0.395397	0.316914
12.8431	12.6684	0.394427	0.31383
12.8435	12.6679	0.394033	0.31382
12.844	12.6675	0.393788	0.311194
12.8445	12.667	0.393914	0.30626
12.8449	12.6665	0.395552	0.303106
12.8454	12.666	0.394599	0.30358
12.8459	12.6656	0.393817	0.301785
12.8464	12.6651	0.394403	0.298231
12.8468	12.6646	0.393708	0.294998
12.8473	12.6641	0.396293	0.292403
12.8478	12.6637	0.394834	0.291337
12.8482	12.6632	0.394234	0.290129
12.8487	12.6627	0.394211	0.287441
12.8492	12.6623	0.393035	0.283978
12.8497	12.6618	0.394843	0.28205
12.8501	12.6613	0.395135	0.282005
12.8506	12.6609	0.394527	0.280666
12.8511	12.6604	0.393893	0.277486
12.8516	12.6599	0.392687	0.275238
12.852	12.6594	0.394949	0.273282
12.8525	12.659	0.393217	0.273327
12.853	12.6585	0.391712	0.274085
12.8534	12.6581	0.392487	0.27147
12.8539	12.6576	0.392426	0.268784
12.8544	12.6571	0.393798	0.269563
12.8549	12.6566	0.392636	0.271682
12.8553	12.6561	0.392789	0.272176
12.8558	12.6557	0.393858	0.27233
12.8563	12.6552	0.394175	0.272386
12.8567	12.6547	0.39435	0.273352
12.8572	12.6542	0.394921	0.276562
12.8577	12.6537	0.392077	0.279935
12.8582	12.6533	0.394267	0.281421
12.8586	12.6528	0.392013	0.281396
12.8591	12.6523	0.396406	0.283582
12.8596	12.6519	0.395435	0.287266
12.8601	12.6514	0.394126	0.289845
12.8605	12.6509	0.394004	0.292802
12.861	12.6505	0.394674	0.293401
12.8615	12.65	0.396254	0.294735
12.8619	12.6495	0.393956	0.299943
12.8624	12.649	0.395013	0.302626
12.8629	12.6486	0.394505	0.303207
12.8634	12.6481	0.392314	0.304714
12.8638	12.6476	0.391787	0.306509
12.8643	12.6472	0.392058	0.30884
12.8648	12.6467	0.390542	0.310733
12.8652	12.6462	0.391402	0.31046
12.8657	12.6457	0.390867	0.310095
12.8662	12.6452	0.390728	0.312559
12.8667	12.6448	0.391035	0.313398
12.8671	12.6443	0.390122	0.317681
12.8676	12.6438	0.391379	0.316806
12.8681	12.6433	0.391245	0.316678
12.8686	12.6429	0.393189	0.317222
12.869	12.6424	0.39301	0.320405
12.8695	12.642	0.392251	0.321412
12.87	12.6415	0.393411	0.321105
12.8704	12.641	0.394793	0.319086
12.8709	12.6405	0.394957	0.321592
12.8714	12.6401	0.393912	0.321417
12.8719	12.6396	0.394126	0.322351
12.8723	12.6391	0.395993	0.32102
12.8728	12.6387	0.393477	0.318242
12.8733	12.6382	0.394669	0.319183
12.8737	12.6377	0.395827	0.320043
12.8742	12.6373	0.39213	0.318765
12.8747	12.6368	0.392711	0.317432
12.8752	12.6363	0.393752	0.314267
12.8756	12.6358	0.393622	0.314765
12.8761	12.6354	0.392568	0.314358
12.8766	12.6349	0.392937	0.313164
12.8771	12.6344	0.393417	0.312964
12.8775	12.6339	0.393047	0.311212
12.878	12.6335	0.392828	0.311888
12.8785	12.633	0.392797	0.313233
12.8789	12.6325	0.392155	0.312622
12.8794	12.6321	0.393295	0.312509
12.8799	12.6316	0.393659	0.312386
12.8804	12.6311	0.393511	0.310608
12.8808	12.6306	0.393181	0.31388
12.8813	12.6302	0.391518	0.313684
12.8818	12.6297	0.392355	0.314187
12.8822	12.6292	0.392566	0.312866
12.8827	12.6288	0.393106	0.312428
12.8832	12.6283	0.391965	0.316187
12.8837	12.6278	0.390177	0.313034
12.8841	12.6273	0.390716	0.314682
12.8846	12.6269	0.391637	0.311533
12.8851	12.6264	0.391749	0.312106
12.8856	12.6259	0.392499	0.313832
12.886	12.6254	0.390902	0.313028
12.8865	12.6249	0.390971	0.31032
12.887	12.6245	0.390222	0.308307
12.8874	12.624	0.391246	0.308723
12.8879	12.6235	0.3914	0.309214
12.8884	12.623	0.389949	0.308213
12.8889	12.6226	0.390753	0.306235
12.8893	12.6221	0.391857	0.305798
12.8898	12.6217	0.390438	0.304614
12.8903	12.6212	0.390468	0.305143
12.8907	12.6207	0.388961	0.305616
12.8912	12.6202	0.389316	0.303295
12.8917	12.6197	0.391767	0.302049
12.8922	12.6193	0.391848	0.303783
12.8926	12.6188	0.392403	0.305185
12.8931	12.6183	0.388486	0.304816
12.8936	12.6179	0.389299	0.301441
12.8941	12.6174	0.391107	0.300882
12.8945	12.6169	0.391722	0.301779
12.895	12.6165	0.390516	0.302142
12.8955	12.616	0.389341	0.302786
12.8959	12.6155	0.390313	0.301218
12.8964	12.615	0.389569	0.300118
12.8969	12.6145	0.390476	0.302238
12.8974	12.6141	0.389971	0.302082
12.8978	12.6136	0.387271	0.300183
12.8983	12.6131	0.38792	0.297983
12.8988	12.6127	0.39048	0.298557
