# 1304     AichiSR QXAFS
# Start     : 8.9544
# End       : 9.0544
# Dir       : Backward
# Points    : 300
# ScanTime  : 1.01549
# Date      : 13.04.23 22:27
# Ring Cur. : 25.4[mA]
12.7557	12.6118	0.295574	0.225521
12.7562	12.6122	0.296736	0.226945
12.7566	12.6127	0.297364	0.229549
12.7571	12.6132	0.29672	0.230401
12.7576	12.6136	0.294699	0.228551
12.7581	12.6141	0.297467	0.228114
12.7585	12.6146	0.299331	0.231939
12.759	12.615	0.298921	0.232581
12.7595	12.6155	0.297195	0.233177
12.7599	12.616	0.299841	0.233209
12.7604	12.6165	0.298215	0.231475
12.7609	12.617	0.299794	0.23313
12.7614	12.6174	0.300189	0.234791
12.7618	12.6179	0.299446	0.235109
12.7623	12.6184	0.2986	0.232762
12.7628	12.6188	0.300145	0.232219
12.7632	12.6193	0.3018	0.234462
12.7637	12.6198	0.300573	0.234972
12.7642	12.6202	0.300013	0.234725
12.7647	12.6207	0.298621	0.234575
12.7651	12.6212	0.299936	0.233804
12.7656	12.6217	0.300516	0.234376
12.7661	12.6222	0.303073	0.237113
12.7666	12.6226	0.300497	0.236669
12.767	12.6231	0.300285	0.23662
12.7675	12.6236	0.300818	0.236285
12.768	12.624	0.303243	0.238509
12.7684	12.6245	0.303063	0.240345
12.7689	12.625	0.300145	0.240053
12.7694	12.6255	0.300713	0.239275
12.7699	12.626	0.300509	0.239606
12.7703	12.6264	0.301823	0.241034
12.7708	12.6269	0.301304	0.242447
12.7713	12.6274	0.302458	0.243738
12.7717	12.6279	0.300568	0.24136
12.7722	12.6283	0.302263	0.240967
12.7727	12.6288	0.303638	0.242848
12.7732	12.6293	0.303701	0.244999
12.7736	12.6297	0.303712	0.244141
12.7741	12.6302	0.303613	0.243158
12.7746	12.6307	0.303382	0.242674
12.7751	12.6312	0.302656	0.241517
12.7755	12.6316	0.306059	0.245593
12.776	12.6321	0.303349	0.244663
12.7765	12.6326	0.303055	0.241119
12.7769	12.633	0.303028	0.240965
12.7774	12.6335	0.305076	0.243276
12.7779	12.6339	0.306737	0.24606
12.7784	12.6344	0.303719	0.24431
12.7788	12.6349	0.305704	0.244943
12.7793	12.6354	0.304961	0.243018
12.7798	12.6359	0.304681	0.24343
12.7802	12.6363	0.308531	0.248791
12.7807	12.6368	0.305024	0.248263
12.7812	12.6373	0.304412	0.245847
12.7817	12.6378	0.306064	0.246282
12.7821	12.6382	0.308224	0.247808
12.7826	12.6387	0.307607	0.249839
12.7831	12.6392	0.305719	0.251374
12.7836	12.6396	0.307899	0.249933
12.784	12.6401	0.306955	0.248753
12.7845	12.6405	0.305027	0.24985
12.785	12.641	0.308197	0.252239
12.7854	12.6415	0.306949	0.253167
12.7859	12.642	0.30579	0.249974
12.7864	12.6424	0.30821	0.249866
12.7869	12.6429	0.307723	0.25094
12.7873	12.6434	0.307235	0.251381
12.7878	12.6438	0.306891	0.250941
12.7883	12.6443	0.308459	0.249308
12.7887	12.6448	0.304979	0.246221
12.7892	12.6453	0.305673	0.244466
12.7897	12.6457	0.308178	0.247344
12.7902	12.6462	0.30621	0.247937
12.7906	12.6467	0.304384	0.244219
12.7911	12.6472	0.30669	0.242738
12.7916	12.6477	0.307642	0.243582
12.7921	12.6481	0.308252	0.243933
12.7925	12.6486	0.30849	0.24267
12.793	12.6491	0.308638	0.239659
12.7935	12.6495	0.310178	0.238057
12.7939	12.65	0.309526	0.235854
12.7944	12.6505	0.309968	0.235412
12.7949	12.651	0.311574	0.2341
12.7954	12.6514	0.309899	0.229585
12.7958	12.6519	0.310836	0.228156
12.7963	12.6524	0.312193	0.228372
12.7968	12.6528	0.311107	0.227459
12.7972	12.6533	0.311214	0.226333
12.7977	12.6538	0.310744	0.222224
12.7982	12.6543	0.312902	0.220893
12.7987	12.6547	0.31024	0.218984
12.7991	12.6552	0.311629	0.2193
12.7996	12.6557	0.312181	0.219279
12.8001	12.6562	0.311324	0.214976
12.8006	12.6566	0.312536	0.214937
12.801	12.6571	0.312225	0.214558
12.8015	12.6576	0.312752	0.216864
12.802	12.6581	0.312071	0.215731
12.8024	12.6585	0.311392	0.214734
12.8029	12.659	0.31392	0.216225
12.8034	12.6595	0.312606	0.216895
12.8039	12.6599	0.311856	0.218482
12.8043	12.6604	0.313425	0.221722
12.8048	12.6609	0.312247	0.220397
12.8053	12.6614	0.313659	0.221288
12.8057	12.6618	0.315675	0.224843
12.8062	12.6623	0.312589	0.22664
12.8067	12.6628	0.312347	0.227383
12.8072	12.6632	0.313958	0.228715
12.8076	12.6637	0.315054	0.230043
12.8081	12.6642	0.314079	0.232516
12.8086	12.6646	0.314143	0.23507
12.8091	12.6651	0.315693	0.237774
12.8095	12.6656	0.314618	0.235904
12.81	12.6661	0.315829	0.23904
12.8105	12.6665	0.315582	0.241568
12.8109	12.667	0.313686	0.243881
12.8114	12.6675	0.31313	0.244314
12.8119	12.668	0.314417	0.245858
12.8124	12.6684	0.316465	0.249381
12.8128	12.6689	0.312795	0.249627
12.8133	12.6694	0.315297	0.254554
12.8138	12.6698	0.31601	0.255034
12.8142	12.6703	0.315527	0.256619
12.8147	12.6708	0.316251	0.257482
12.8152	12.6712	0.317312	0.262774
12.8157	12.6717	0.314677	0.262188
12.8161	12.6722	0.316251	0.264078
12.8166	12.6726	0.316675	0.265685
12.8171	12.6731	0.316844	0.264851
12.8176	12.6736	0.314813	0.267522
12.818	12.674	0.316595	0.270416
12.8185	12.6745	0.316167	0.270601
12.819	12.675	0.313716	0.267598
12.8194	12.6755	0.315828	0.270491
12.8199	12.676	0.315215	0.273247
12.8204	12.6765	0.31532	0.273009
12.8209	12.6769	0.313925	0.271582
12.8213	12.6774	0.316388	0.273625
12.8218	12.6779	0.318883	0.273731
12.8223	12.6784	0.315517	0.272984
12.8227	12.6788	0.315715	0.27424
12.8232	12.6793	0.316555	0.273509
12.8237	12.6798	0.314794	0.269906
12.8242	12.6802	0.316923	0.267625
12.8246	12.6807	0.316306	0.26641
12.8251	12.6812	0.315799	0.26648
12.8256	12.6817	0.314414	0.262421
12.8261	12.6821	0.316053	0.258913
12.8265	12.6826	0.317349	0.255768
12.827	12.6831	0.315053	0.255957
12.8275	12.6835	0.316966	0.254482
12.8279	12.684	0.316827	0.251398
12.8284	12.6845	0.314644	0.246565
12.8289	12.685	0.31632	0.244662
12.8294	12.6854	0.317621	0.243189
12.8298	12.6859	0.315485	0.242207
12.8303	12.6864	0.315431	0.236712
12.8308	12.6869	0.316808	0.233739
12.8312	12.6874	0.316894	0.230056
12.8317	12.6878	0.317445	0.226206
12.8322	12.6883	0.318008	0.225553
12.8327	12.6888	0.316943	0.223148
12.8331	12.6892	0.316945	0.217713
12.8336	12.6897	0.320006	0.218394
12.8341	12.6901	0.317906	0.22036
12.8346	12.6906	0.316826	0.220189
12.835	12.6911	0.316705	0.222445
12.8355	12.6916	0.318229	0.22518
12.836	12.692	0.319509	0.228843
12.8364	12.6925	0.316438	0.23275
12.8369	12.693	0.318184	0.239525
12.8374	12.6934	0.317855	0.242947
12.8379	12.6939	0.316695	0.245141
12.8383	12.6944	0.318819	0.249873
12.8388	12.6948	0.318705	0.254887
12.8393	12.6953	0.315403	0.256413
12.8397	12.6958	0.316041	0.256949
12.8402	12.6963	0.317132	0.258009
12.8407	12.6968	0.318768	0.25772
12.8412	12.6972	0.316211	0.256717
12.8416	12.6977	0.318818	0.256678
12.8421	12.6982	0.31922	0.254313
12.8426	12.6986	0.315504	0.250301
12.8431	12.6991	0.317547	0.247189
12.8435	12.6996	0.318994	0.244184
12.844	12.7	0.316733	0.241239
12.8445	12.7005	0.315727	0.236923
12.8449	12.701	0.317968	0.232655
12.8454	12.7015	0.317984	0.228605
12.8459	12.7019	0.315307	0.226512
12.8464	12.7024	0.318374	0.22613
12.8468	12.7029	0.31839	0.223956
12.8473	12.7033	0.316324	0.221598
12.8478	12.7038	0.318898	0.224518
12.8482	12.7043	0.318195	0.228821
12.8487	12.7048	0.317281	0.232504
12.8492	12.7052	0.316639	0.237684
12.8497	12.7057	0.319715	0.244447
12.8501	12.7062	0.318197	0.252806
12.8506	12.7067	0.317939	0.261939
12.8511	12.7072	0.319138	0.274799
12.8516	12.7076	0.321266	0.285571
12.852	12.7081	0.319216	0.294875
12.8525	12.7086	0.319078	0.309223
12.853	12.7091	0.318429	0.322822
12.8534	12.7095	0.318673	0.337397
12.8539	12.71	0.320683	0.351483
12.8544	12.7105	0.320324	0.362555
12.8549	12.7109	0.320861	0.375758
12.8553	12.7114	0.319712	0.388673
12.8558	12.7119	0.319095	0.401682
12.8563	12.7123	0.320216	0.411449
12.8567	12.7128	0.318432	0.419721
12.8572	12.7133	0.320494	0.430809
12.8577	12.7137	0.320106	0.439392
12.8582	12.7142	0.317483	0.445138
12.8586	12.7147	0.317589	0.453157
12.8591	12.7152	0.320147	0.462702
12.8596	12.7157	0.319347	0.472332
12.8601	12.7161	0.318283	0.480013
12.8605	12.7166	0.317784	0.489371
12.861	12.7171	0.318516	0.496435
12.8615	12.7176	0.318572	0.502456
12.8619	12.718	0.320345	0.507471
12.8624	12.7185	0.320356	0.511146
12.8629	12.719	0.316303	0.505556
12.8634	12.7194	0.316857	0.5006
12.8638	12.7199	0.318927	0.498173
12.8643	12.7204	0.319666	0.49324
12.8648	12.7208	0.317519	0.491843
12.8652	12.7213	0.315494	0.49449
12.8657	12.7218	0.315901	0.499634
12.8662	12.7222	0.316754	0.513359
12.8667	12.7227	0.318736	0.536662
12.8671	12.7232	0.315094	0.568834
12.8676	12.7236	0.313888	0.606783
12.8681	12.7241	0.314475	0.654344
12.8686	12.7246	0.316345	0.708962
12.869	12.7251	0.313845	0.751937
12.8695	12.7255	0.312216	0.793233
12.87	12.726	0.313734	0.831153
12.8704	12.7265	0.314955	0.856515
12.8709	12.727	0.315166	0.873361
12.8714	12.7274	0.317741	0.888251
12.8719	12.7279	0.317681	0.908565
12.8723	12.7284	0.315107	0.910796
12.8728	12.7289	0.315373	0.91272
12.8733	12.7293	0.317419	0.923703
12.8737	12.7298	0.318052	0.931457
12.8742	12.7302	0.315531	0.928434
12.8747	12.7307	0.315778	0.938758
12.8752	12.7312	0.317048	0.939234
12.8756	12.7317	0.317163	0.935671
12.8761	12.7322	0.315742	0.937945
12.8766	12.7326	0.319284	0.948065
12.8771	12.7331	0.315499	0.946216
12.8775	12.7336	0.315289	0.943099
12.878	12.734	0.319499	0.951337
12.8785	12.7345	0.318816	0.952938
12.8789	12.735	0.315285	0.950315
12.8794	12.7355	0.316577	0.959427
12.8799	12.736	0.318081	0.956378
12.8804	12.7364	0.317899	0.957225
12.8808	12.7369	0.319417	0.959703
12.8813	12.7374	0.319104	0.962771
12.8818	12.7379	0.317016	0.962771
12.8822	12.7384	0.316267	0.955972
12.8827	12.7388	0.319323	0.964906
12.8832	12.7393	0.322355	0.97144
12.8837	12.7397	0.320786	0.969344
12.8841	12.7402	0.319425	0.968374
12.8846	12.7407	0.318852	0.966555
12.8851	12.7412	0.318316	0.962717
12.8856	12.7416	0.320445	0.969259
12.886	12.7421	0.318773	0.969682
12.8865	12.7426	0.318441	0.968189
12.887	12.743	0.317699	0.965996
12.8874	12.7435	0.320327	0.969778
12.8879	12.744	0.320502	0.968242
12.8884	12.7444	0.319908	0.967396
12.8889	12.7449	0.31958	0.974593
12.8893	12.7454	0.320122	0.970565
12.8898	12.7459	0.320661	0.972398
12.8903	12.7464	0.320282	0.976362
12.8907	12.7468	0.320395	0.976103
12.8912	12.7473	0.319813	0.97454
12.8917	12.7478	0.320763	0.975761
12.8922	12.7483	0.323576	0.980358
12.8926	12.7487	0.321835	0.975406
12.8931	12.7492	0.320791	0.976238
12.8936	12.7496	0.321944	0.985544
12.8941	12.7501	0.322174	0.978334
12.8945	12.7506	0.323171	0.977205
12.895	12.7511	0.322562	0.980067
12.8955	12.7515	0.322233	0.983538
12.8959	12.752	0.321619	0.980366
12.8964	12.7525	0.321585	0.977826
12.8969	12.7529	0.323778	0.984029
12.8974	12.7534	0.321732	0.981092
12.8978	12.7539	0.321484	0.979917
12.8983	12.7543	0.323298	0.988983
12.8988	12.7548	0.323406	0.986683
