# 1304     AichiSR QXAFS
# Start     : 8.9544
# End       : 9.0544
# Dir       : Backward
# Points    : 300
# ScanTime  : 1.01549
# Date      : 13.04.23 22:26
# Ring Cur. : 25.4[mA]
12.7557	12.6118	0.295082	0.225515
12.7562	12.6122	0.296629	0.225305
12.7566	12.6127	0.295912	0.228056
12.7571	12.6132	0.297006	0.229991
12.7576	12.6136	0.297439	0.229428
12.7581	12.6141	0.296475	0.229185
12.7585	12.6146	0.300546	0.231846
12.759	12.615	0.297994	0.23251
12.7595	12.6155	0.297623	0.233891
12.7599	12.616	0.299288	0.233751
12.7604	12.6165	0.297487	0.232129
12.7609	12.6169	0.298873	0.230991
12.7614	12.6174	0.297836	0.232154
12.7618	12.6179	0.299519	0.232909
12.7623	12.6184	0.297321	0.232072
12.7628	12.6188	0.297059	0.230255
12.7632	12.6193	0.299971	0.231714
12.7637	12.6198	0.298722	0.233959
12.7642	12.6202	0.298718	0.23509
12.7647	12.6207	0.300682	0.234815
12.7651	12.6212	0.300471	0.234087
12.7656	12.6217	0.300976	0.233059
12.7661	12.6222	0.300616	0.235855
12.7666	12.6226	0.301521	0.236892
12.767	12.6231	0.298959	0.236721
12.7675	12.6235	0.298203	0.234693
12.768	12.624	0.301294	0.236425
12.7684	12.6245	0.299484	0.238611
12.7689	12.625	0.299173	0.238242
12.7694	12.6255	0.301066	0.239381
12.7699	12.6259	0.300275	0.238964
12.7703	12.6264	0.301543	0.239473
12.7708	12.6269	0.300757	0.241642
12.7713	12.6274	0.303188	0.244808
12.7717	12.6279	0.30362	0.243086
12.7722	12.6283	0.301031	0.241505
12.7727	12.6288	0.304197	0.243486
12.7732	12.6293	0.301696	0.243013
12.7736	12.6297	0.302948	0.245194
12.7741	12.6302	0.303571	0.243839
12.7746	12.6307	0.30356	0.241661
12.7751	12.6311	0.303088	0.241012
12.7755	12.6316	0.303371	0.243092
12.776	12.6321	0.304738	0.244368
12.7765	12.6325	0.303444	0.242393
12.7769	12.633	0.302859	0.240163
12.7774	12.6335	0.30639	0.243262
12.7779	12.6339	0.304281	0.242981
12.7784	12.6344	0.304127	0.244201
12.7788	12.6349	0.30572	0.244418
12.7793	12.6354	0.306039	0.243969
12.7798	12.6358	0.30494	0.244458
12.7802	12.6363	0.305635	0.245922
12.7807	12.6368	0.304845	0.247517
12.7812	12.6373	0.305243	0.245969
12.7817	12.6378	0.306524	0.246397
12.7821	12.6382	0.307276	0.24861
12.7826	12.6387	0.305787	0.249618
12.7831	12.6391	0.305115	0.250666
12.7836	12.6396	0.307424	0.250689
12.784	12.6401	0.306864	0.248373
12.7845	12.6405	0.30859	0.250557
12.785	12.641	0.308022	0.252086
12.7854	12.6415	0.306298	0.252018
12.7859	12.642	0.306724	0.250502
12.7864	12.6424	0.308516	0.25012
12.7869	12.6429	0.308581	0.251311
12.7873	12.6433	0.307713	0.250851
12.7878	12.6438	0.304985	0.250935
12.7883	12.6443	0.306269	0.249965
12.7887	12.6448	0.307495	0.248803
12.7892	12.6452	0.305359	0.245889
12.7897	12.6457	0.304779	0.246647
12.7902	12.6462	0.305278	0.246483
12.7906	12.6467	0.306681	0.243646
12.7911	12.6472	0.308209	0.243219
12.7916	12.6476	0.309497	0.243505
12.7921	12.6481	0.309668	0.244079
12.7925	12.6486	0.307415	0.242417
12.793	12.6491	0.310169	0.241387
12.7935	12.6495	0.312283	0.238977
12.7939	12.65	0.309384	0.235784
12.7944	12.6505	0.310735	0.236171
12.7949	12.651	0.310565	0.23451
12.7954	12.6514	0.311067	0.230241
12.7958	12.6519	0.311491	0.229202
12.7963	12.6524	0.312598	0.228521
12.7968	12.6528	0.310342	0.226086
12.7972	12.6533	0.310129	0.225141
12.7977	12.6538	0.311347	0.223036
12.7982	12.6543	0.314295	0.221799
12.7987	12.6547	0.311927	0.218032
12.7991	12.6552	0.314539	0.2203
12.7996	12.6557	0.313829	0.219302
12.8001	12.6562	0.31306	0.216578
12.8006	12.6566	0.314092	0.215925
12.801	12.6571	0.315428	0.217719
12.8015	12.6576	0.31466	0.216435
12.802	12.6581	0.312073	0.217928
12.8024	12.6585	0.313728	0.216385
12.8029	12.659	0.314001	0.215855
12.8034	12.6595	0.313143	0.217444
12.8039	12.6599	0.312594	0.218352
12.8043	12.6604	0.312179	0.221215
12.8048	12.6609	0.31338	0.22054
12.8053	12.6614	0.315343	0.221972
12.8057	12.6618	0.316199	0.224708
12.8062	12.6623	0.314964	0.226291
12.8067	12.6628	0.315294	0.229668
12.8072	12.6632	0.315668	0.229624
12.8076	12.6637	0.316495	0.229823
12.8081	12.6642	0.317387	0.233462
12.8086	12.6646	0.314748	0.236274
12.8091	12.6651	0.314885	0.237199
12.8095	12.6656	0.314179	0.237572
12.81	12.6661	0.316415	0.238896
12.8105	12.6665	0.316714	0.241518
12.8109	12.667	0.31522	0.242853
12.8114	12.6675	0.314771	0.245413
12.8119	12.668	0.316063	0.247487
12.8124	12.6684	0.318401	0.249604
12.8128	12.6689	0.316049	0.251315
12.8133	12.6694	0.316048	0.255141
12.8138	12.6698	0.317891	0.258222
12.8142	12.6703	0.316736	0.258701
12.8147	12.6708	0.316403	0.259
12.8152	12.6712	0.317709	0.261108
12.8157	12.6717	0.316496	0.263469
12.8161	12.6722	0.314979	0.265198
12.8166	12.6726	0.317012	0.266469
12.8171	12.6731	0.317883	0.266631
12.8176	12.6736	0.313857	0.266479
12.818	12.674	0.316359	0.270847
12.8185	12.6745	0.317701	0.271695
12.819	12.675	0.314192	0.270263
12.8194	12.6755	0.318584	0.27095
12.8199	12.676	0.320591	0.275814
12.8204	12.6764	0.317464	0.274938
12.8209	12.6769	0.316548	0.275747
12.8213	12.6774	0.318681	0.275696
12.8218	12.6779	0.318458	0.274951
12.8223	12.6784	0.317531	0.273726
12.8227	12.6788	0.317631	0.27444
12.8232	12.6793	0.3168	0.274103
12.8237	12.6798	0.316385	0.270133
12.8242	12.6802	0.317192	0.268885
12.8246	12.6807	0.31898	0.269482
12.8251	12.6812	0.317809	0.266126
12.8256	12.6817	0.316528	0.263031
12.8261	12.6821	0.319056	0.261381
12.8265	12.6826	0.320466	0.258309
12.827	12.683	0.316887	0.255675
12.8275	12.6835	0.317242	0.255291
12.8279	12.684	0.318477	0.254097
12.8284	12.6845	0.317905	0.249213
12.8289	12.6849	0.318238	0.246003
12.8294	12.6854	0.31787	0.244666
12.8298	12.6859	0.317448	0.240589
12.8303	12.6864	0.316103	0.238104
12.8308	12.6869	0.318394	0.235205
12.8312	12.6873	0.318748	0.230156
12.8317	12.6878	0.317886	0.227828
12.8322	12.6883	0.319622	0.226132
12.8327	12.6888	0.319312	0.225832
12.8331	12.6892	0.319707	0.221077
12.8336	12.6897	0.320275	0.218733
12.8341	12.6901	0.320411	0.221369
12.8346	12.6906	0.319024	0.221847
12.835	12.6911	0.319543	0.223857
12.8355	12.6916	0.318982	0.225547
12.836	12.692	0.31956	0.22903
12.8364	12.6925	0.319113	0.233884
12.8369	12.693	0.318895	0.24055
12.8374	12.6934	0.318008	0.242446
12.8379	12.6939	0.31912	0.24637
12.8383	12.6944	0.321132	0.250899
12.8388	12.6948	0.317964	0.255423
12.8393	12.6953	0.317054	0.256183
12.8397	12.6958	0.31692	0.259221
12.8402	12.6963	0.320406	0.259598
12.8407	12.6967	0.320089	0.257975
12.8412	12.6972	0.319632	0.258081
12.8416	12.6977	0.319559	0.257514
12.8421	12.6982	0.31953	0.256481
12.8426	12.6986	0.31757	0.251106
12.8431	12.6991	0.319801	0.248152
12.8435	12.6995	0.319389	0.246095
12.844	12.7	0.318818	0.242548
12.8445	12.7005	0.316234	0.237487
12.8449	12.701	0.318622	0.232532
12.8454	12.7015	0.321089	0.229865
12.8459	12.7019	0.318731	0.228562
12.8464	12.7024	0.318648	0.227472
12.8468	12.7028	0.319045	0.224584
12.8473	12.7033	0.31956	0.224211
12.8478	12.7038	0.32165	0.226457
12.8482	12.7043	0.321405	0.230229
12.8487	12.7047	0.31957	0.233563
12.8492	12.7052	0.31791	0.238906
12.8497	12.7057	0.320288	0.246527
12.8501	12.7062	0.322933	0.254633
12.8506	12.7067	0.320761	0.262803
12.8511	12.7072	0.319721	0.272953
12.8516	12.7076	0.319775	0.286736
12.852	12.7081	0.318734	0.296002
12.8525	12.7086	0.322522	0.312414
12.853	12.7091	0.322455	0.326724
12.8534	12.7095	0.320659	0.33846
12.8539	12.71	0.318634	0.350513
12.8544	12.7104	0.321117	0.365858
12.8549	12.7109	0.324761	0.379466
12.8553	12.7114	0.321911	0.391182
12.8558	12.7119	0.319854	0.404685
12.8563	12.7123	0.319858	0.41347
12.8567	12.7128	0.320132	0.421146
12.8572	12.7133	0.322555	0.432266
12.8577	12.7137	0.322247	0.443613
12.8582	12.7142	0.318674	0.447779
12.8586	12.7147	0.318805	0.454659
12.8591	12.7152	0.320393	0.46446
12.8596	12.7157	0.321423	0.472997
12.8601	12.7161	0.320942	0.482815
12.8605	12.7166	0.319899	0.492667
12.861	12.7171	0.320056	0.499737
12.8615	12.7176	0.319249	0.503527
12.8619	12.718	0.322928	0.512314
12.8624	12.7185	0.322761	0.513102
12.8629	12.719	0.32085	0.508562
12.8634	12.7194	0.317599	0.501533
12.8638	12.7199	0.319742	0.498605
12.8643	12.7204	0.321009	0.494948
12.8648	12.7208	0.320571	0.495059
12.8652	12.7213	0.318968	0.497024
12.8657	12.7218	0.317786	0.501485
12.8662	12.7222	0.317365	0.512934
12.8667	12.7227	0.320351	0.541029
12.8671	12.7232	0.319914	0.57575
12.8676	12.7236	0.316945	0.613096
12.8681	12.7241	0.314541	0.657603
12.8686	12.7246	0.316408	0.710739
12.869	12.725	0.31849	0.76293
12.8695	12.7255	0.316994	0.802016
12.87	12.726	0.316194	0.837548
12.8704	12.7265	0.316633	0.86114
12.8709	12.727	0.316575	0.878027
12.8714	12.7274	0.319916	0.896925
12.8719	12.7279	0.321425	0.913272
12.8723	12.7284	0.317561	0.91555
12.8728	12.7288	0.317165	0.918293
12.8733	12.7293	0.319904	0.929821
12.8737	12.7298	0.319756	0.934306
12.8742	12.7302	0.318378	0.936382
12.8747	12.7307	0.320332	0.944926
12.8752	12.7312	0.318787	0.948535
12.8756	12.7317	0.31667	0.940391
12.8761	12.7322	0.320179	0.94885
12.8766	12.7326	0.320902	0.957263
12.8771	12.7331	0.319716	0.95613
12.8775	12.7336	0.317301	0.954597
12.878	12.734	0.318326	0.956786
12.8785	12.7345	0.321342	0.958526
12.8789	12.735	0.319495	0.960995
12.8794	12.7355	0.319569	0.965382
12.8799	12.736	0.319983	0.962707
12.8804	12.7364	0.317659	0.956832
12.8808	12.7369	0.320951	0.967264
12.8813	12.7374	0.321995	0.967122
12.8818	12.7379	0.320748	0.969547
12.8822	12.7383	0.319082	0.964584
12.8827	12.7388	0.321192	0.968646
12.8832	12.7393	0.321673	0.967883
12.8837	12.7397	0.320958	0.96954
12.8841	12.7402	0.32045	0.97347
12.8846	12.7407	0.319693	0.969992
12.8851	12.7412	0.318331	0.964642
12.8856	12.7416	0.321108	0.971528
12.886	12.7421	0.321614	0.976451
12.8865	12.7426	0.320323	0.975312
12.887	12.743	0.318792	0.970234
12.8874	12.7435	0.319993	0.972596
12.8879	12.744	0.322599	0.973337
12.8884	12.7444	0.321672	0.977865
12.8889	12.7449	0.321607	0.978459
12.8893	12.7454	0.320756	0.97674
12.8898	12.7459	0.321695	0.974167
12.8903	12.7464	0.322322	0.978157
12.8907	12.7468	0.322718	0.983756
12.8912	12.7473	0.321896	0.979865
12.8917	12.7478	0.320952	0.977398
12.8922	12.7483	0.321469	0.981078
12.8926	12.7487	0.322937	0.982261
12.8931	12.7492	0.321967	0.979214
12.8936	12.7496	0.321364	0.984118
12.8941	12.7501	0.321677	0.981885
12.8945	12.7506	0.320222	0.976986
12.895	12.7511	0.325644	0.989926
12.8955	12.7515	0.32642	0.993901
12.8959	12.752	0.320987	0.984536
12.8964	12.7525	0.321945	0.981106
12.8969	12.7529	0.324318	0.984468
12.8974	12.7534	0.323259	0.982903
12.8978	12.7538	0.322888	0.981894
12.8983	12.7543	0.321761	0.987222
12.8988	12.7548	0.320496	0.980894
