# 1304     AichiSR QXAFS
# Start     : 8.9544
# End       : 9.0544
# Dir       : Backward
# Points    : 300
# ScanTime  : 1.01549
# Date      : 13.04.23 22:20
# Ring Cur. : 25.5[mA]
12.7557	12.6117	0.302324	0.229753
12.7562	12.6122	0.301798	0.232188
12.7566	12.6127	0.299867	0.23252
12.7571	12.6131	0.301937	0.231693
12.7576	12.6136	0.302671	0.233117
12.7581	12.614	0.302948	0.233802
12.7585	12.6145	0.304405	0.236587
12.759	12.615	0.30214	0.234567
12.7595	12.6155	0.30256	0.235405
12.7599	12.616	0.303044	0.235303
12.7604	12.6164	0.303676	0.236046
12.7609	12.6169	0.304489	0.237465
12.7614	12.6174	0.302008	0.237751
12.7618	12.6179	0.304044	0.23536
12.7623	12.6183	0.303133	0.235141
12.7628	12.6188	0.303563	0.237527
12.7632	12.6193	0.304941	0.238253
12.7637	12.6197	0.302807	0.238144
12.7642	12.6202	0.301639	0.235423
12.7647	12.6207	0.304186	0.235578
12.7651	12.6212	0.305968	0.237987
12.7656	12.6216	0.304295	0.238589
12.7661	12.6221	0.303043	0.238746
12.7666	12.6226	0.303684	0.237854
12.767	12.623	0.304744	0.238395
12.7675	12.6235	0.304499	0.238691
12.768	12.624	0.306934	0.242136
12.7684	12.6245	0.304453	0.241457
12.7689	12.6249	0.301517	0.239875
12.7694	12.6254	0.306449	0.241037
12.7699	12.6259	0.30624	0.243547
12.7703	12.6264	0.305492	0.244337
12.7708	12.6268	0.304458	0.245279
12.7713	12.6273	0.303601	0.242982
12.7717	12.6278	0.305176	0.242662
12.7722	12.6283	0.305746	0.245805
12.7727	12.6288	0.306359	0.246822
12.7732	12.6292	0.303984	0.245414
12.7736	12.6297	0.303867	0.243554
12.7741	12.6301	0.307532	0.24522
12.7746	12.6306	0.30704	0.2461
12.7751	12.6311	0.30487	0.245598
12.7755	12.6316	0.305354	0.246707
12.776	12.632	0.305558	0.243688
12.7765	12.6325	0.306477	0.243672
12.7769	12.633	0.308699	0.245224
12.7774	12.6334	0.307032	0.246173
12.7779	12.6339	0.306079	0.244866
12.7784	12.6344	0.305497	0.243563
12.7788	12.6348	0.308436	0.245312
12.7793	12.6353	0.307728	0.246131
12.7798	12.6358	0.30643	0.246492
12.7802	12.6363	0.307882	0.248443
12.7807	12.6368	0.304223	0.244876
12.7812	12.6372	0.305307	0.24519
12.7817	12.6377	0.308242	0.248452
12.7821	12.6382	0.307354	0.249832
12.7826	12.6386	0.305216	0.249475
12.7831	12.6391	0.304881	0.248946
12.7836	12.6396	0.308208	0.249519
12.784	12.64	0.308761	0.250789
12.7845	12.6405	0.308307	0.252675
12.785	12.641	0.307326	0.252503
12.7854	12.6415	0.306305	0.250139
12.7859	12.6419	0.308366	0.250538
12.7864	12.6424	0.308186	0.251767
12.7869	12.6428	0.308806	0.252445
12.7873	12.6433	0.30697	0.252221
12.7878	12.6438	0.303067	0.24707
12.7883	12.6442	0.307796	0.247981
12.7887	12.6447	0.307049	0.24882
12.7892	12.6452	0.304419	0.24815
12.7897	12.6457	0.307286	0.247111
12.7902	12.6462	0.305924	0.244256
12.7906	12.6466	0.305911	0.244133
12.7911	12.6471	0.306984	0.244842
12.7916	12.6476	0.309401	0.245294
12.7921	12.6481	0.307927	0.242988
12.7925	12.6486	0.307173	0.239695
12.793	12.649	0.310125	0.239418
12.7935	12.6495	0.309816	0.239256
12.7939	12.65	0.308584	0.238283
12.7944	12.6504	0.307069	0.234964
12.7949	12.6509	0.309717	0.232862
12.7954	12.6514	0.311712	0.230685
12.7958	12.6519	0.309702	0.229182
12.7963	12.6523	0.311049	0.230297
12.7968	12.6528	0.31069	0.227437
12.7972	12.6533	0.309784	0.222797
12.7977	12.6537	0.312215	0.222561
12.7982	12.6542	0.311572	0.222273
12.7987	12.6547	0.311822	0.221184
12.7991	12.6552	0.310608	0.218698
12.7996	12.6556	0.310218	0.215674
12.8001	12.6561	0.311132	0.215147
12.8006	12.6566	0.311276	0.21676
12.801	12.6571	0.312594	0.218063
12.8015	12.6576	0.310702	0.215684
12.802	12.658	0.30992	0.213737
12.8024	12.6585	0.314261	0.215144
12.8029	12.659	0.311909	0.216199
12.8034	12.6594	0.311841	0.218719
12.8039	12.6599	0.312837	0.21867
12.8043	12.6604	0.31164	0.217654
12.8048	12.6608	0.312956	0.218566
12.8053	12.6613	0.31374	0.221469
12.8057	12.6618	0.313211	0.224252
12.8062	12.6623	0.312501	0.224335
12.8067	12.6627	0.310907	0.225246
12.8072	12.6632	0.315137	0.225952
12.8076	12.6636	0.313067	0.229159
12.8081	12.6641	0.314032	0.232168
12.8086	12.6646	0.311881	0.233443
12.8091	12.6651	0.311101	0.232681
12.8095	12.6655	0.314491	0.234678
12.81	12.666	0.314787	0.23948
12.8105	12.6665	0.314487	0.241889
12.8109	12.667	0.311415	0.241668
12.8114	12.6674	0.313336	0.242035
12.8119	12.6679	0.316628	0.245528
12.8124	12.6684	0.315801	0.248297
12.8128	12.6689	0.311827	0.249811
12.8133	12.6693	0.312961	0.251849
12.8138	12.6698	0.312768	0.252249
12.8142	12.6702	0.315142	0.254499
12.8147	12.6707	0.314376	0.257619
12.8152	12.6712	0.314318	0.262603
12.8157	12.6717	0.313633	0.261412
12.8161	12.6721	0.31149	0.261552
12.8166	12.6726	0.315798	0.264328
12.8171	12.6731	0.315298	0.265346
12.8176	12.6735	0.312774	0.267144
12.818	12.674	0.313497	0.268781
12.8185	12.6745	0.31341	0.267281
12.819	12.675	0.314674	0.268144
12.8194	12.6754	0.315462	0.270068
12.8199	12.6759	0.315812	0.272308
12.8204	12.6764	0.313287	0.271936
12.8209	12.6769	0.31226	0.271089
12.8213	12.6774	0.315881	0.271649
12.8218	12.6778	0.314122	0.273551
12.8223	12.6783	0.314303	0.272528
12.8227	12.6788	0.315156	0.27298
12.8232	12.6792	0.314072	0.269933
12.8237	12.6797	0.314991	0.267157
12.8242	12.6802	0.315957	0.268629
12.8246	12.6807	0.316658	0.268089
12.8251	12.6811	0.315139	0.265661
12.8256	12.6816	0.313643	0.261043
12.8261	12.6821	0.316622	0.259781
12.8265	12.6825	0.316095	0.257648
12.827	12.683	0.314888	0.255655
12.8275	12.6835	0.315292	0.251139
12.8279	12.6839	0.313241	0.247842
12.8284	12.6844	0.314489	0.246621
12.8289	12.6849	0.31455	0.245861
12.8294	12.6854	0.314936	0.24473
12.8298	12.6859	0.314191	0.238508
12.8303	12.6863	0.313491	0.233888
12.8308	12.6868	0.316342	0.231986
12.8312	12.6873	0.315541	0.230171
12.8317	12.6878	0.315904	0.226692
12.8322	12.6883	0.315366	0.224571
12.8327	12.6887	0.316597	0.219845
12.8331	12.6892	0.316766	0.219502
12.8336	12.6896	0.317053	0.220011
12.8341	12.6901	0.316409	0.220581
12.8346	12.6906	0.314725	0.217867
12.835	12.6911	0.314513	0.217945
12.8355	12.6915	0.317054	0.222109
12.836	12.692	0.316128	0.226671
12.8364	12.6924	0.315819	0.23183
12.8369	12.6929	0.315486	0.236431
12.8374	12.6934	0.314689	0.239351
12.8379	12.6938	0.315055	0.242403
12.8383	12.6943	0.315183	0.247475
12.8388	12.6948	0.31411	0.25263
12.8393	12.6953	0.315399	0.253901
12.8397	12.6958	0.314669	0.253156
12.8402	12.6962	0.31617	0.25453
12.8407	12.6967	0.316204	0.257112
12.8412	12.6972	0.315144	0.258
12.8416	12.6977	0.316509	0.254423
12.8421	12.6981	0.314576	0.250612
12.8426	12.6986	0.315411	0.249238
12.8431	12.6991	0.315603	0.246383
12.8435	12.6995	0.314796	0.2443
12.844	12.7	0.313561	0.239447
12.8445	12.7004	0.312665	0.232978
12.8449	12.7009	0.314937	0.232152
12.8454	12.7014	0.317047	0.230687
12.8459	12.7019	0.31352	0.226497
12.8464	12.7023	0.314638	0.224021
12.8468	12.7028	0.315927	0.221819
12.8473	12.7033	0.31529	0.220642
12.8478	12.7037	0.313927	0.224389
12.8482	12.7042	0.315133	0.227251
12.8487	12.7047	0.31476	0.228748
12.8492	12.7052	0.314228	0.233717
12.8497	12.7057	0.31622	0.242306
12.8501	12.7062	0.316616	0.250955
12.8506	12.7066	0.315539	0.261177
12.8511	12.7071	0.314927	0.268197
12.8516	12.7076	0.317421	0.279601
12.852	12.7081	0.320766	0.29557
12.8525	12.7085	0.318981	0.308878
12.853	12.709	0.318268	0.320938
12.8534	12.7095	0.315402	0.329334
12.8539	12.7099	0.315942	0.342676
12.8544	12.7104	0.319264	0.358447
12.8549	12.7109	0.318383	0.372917
12.8553	12.7114	0.314677	0.381043
12.8558	12.7118	0.316684	0.393929
12.8563	12.7123	0.316812	0.405446
12.8567	12.7128	0.315852	0.412577
12.8572	12.7132	0.316901	0.425819
12.8577	12.7137	0.316585	0.435663
12.8582	12.7142	0.3166	0.44119
12.8586	12.7146	0.314973	0.44592
12.8591	12.7151	0.316978	0.45604
12.8596	12.7156	0.316289	0.465472
12.8601	12.7161	0.31731	0.47771
12.8605	12.7166	0.316029	0.482215
12.861	12.717	0.316018	0.488584
12.8615	12.7175	0.317017	0.497263
12.8619	12.718	0.319053	0.50588
12.8624	12.7185	0.316591	0.508064
12.8629	12.7189	0.315814	0.502347
12.8634	12.7194	0.316095	0.498213
12.8638	12.7198	0.317751	0.497693
12.8643	12.7203	0.317807	0.493728
12.8648	12.7208	0.31553	0.491252
12.8652	12.7213	0.316765	0.492291
12.8657	12.7217	0.318546	0.499753
12.8662	12.7222	0.315722	0.508752
12.8667	12.7227	0.317913	0.531334
12.8671	12.7231	0.317551	0.568936
12.8676	12.7236	0.31556	0.602042
12.8681	12.724	0.313776	0.644774
12.8686	12.7245	0.315811	0.698463
12.869	12.725	0.315638	0.74864
12.8695	12.7255	0.314299	0.793028
12.87	12.726	0.316136	0.828727
12.8704	12.7264	0.316154	0.852435
12.8709	12.7269	0.316073	0.872612
12.8714	12.7274	0.31724	0.893809
12.8719	12.7279	0.318561	0.9122
12.8723	12.7283	0.31598	0.908634
12.8728	12.7288	0.318205	0.917473
12.8733	12.7293	0.3206	0.929203
12.8737	12.7297	0.319894	0.933263
12.8742	12.7302	0.319262	0.940714
12.8747	12.7307	0.31919	0.945232
12.8752	12.7312	0.320316	0.950131
12.8756	12.7316	0.319328	0.945677
12.8761	12.7321	0.321837	0.955574
12.8766	12.7326	0.322166	0.962791
12.8771	12.733	0.320189	0.954843
12.8775	12.7335	0.318827	0.951028
12.878	12.734	0.320684	0.960845
12.8785	12.7345	0.320839	0.962863
12.8789	12.7349	0.320932	0.966156
12.8794	12.7354	0.321585	0.966341
12.8799	12.7359	0.322238	0.970293
12.8804	12.7364	0.321513	0.968899
12.8808	12.7369	0.322245	0.975144
12.8813	12.7374	0.324978	0.981759
12.8818	12.7378	0.322163	0.974327
12.8822	12.7383	0.323213	0.972058
12.8827	12.7388	0.323242	0.975318
12.8832	12.7392	0.324031	0.979594
12.8837	12.7397	0.322951	0.980579
12.8841	12.7402	0.32244	0.978336
12.8846	12.7406	0.323853	0.978214
12.8851	12.7411	0.32383	0.980556
12.8856	12.7416	0.323913	0.981018
12.886	12.7421	0.323169	0.987398
12.8865	12.7425	0.325496	0.982423
12.887	12.743	0.3249	0.984936
12.8874	12.7434	0.325722	0.986424
12.8879	12.7439	0.32463	0.98917
12.8884	12.7444	0.326061	0.990052
12.8889	12.7449	0.326559	0.991056
12.8893	12.7454	0.327392	0.990903
12.8898	12.7458	0.325462	0.987446
12.8903	12.7463	0.325989	0.990595
12.8907	12.7468	0.328913	0.998338
12.8912	12.7473	0.325702	0.991286
12.8917	12.7477	0.324652	0.98861
12.8922	12.7482	0.32781	0.995445
12.8926	12.7487	0.327281	0.995111
12.8931	12.7491	0.326528	0.998587
12.8936	12.7496	0.328487	0.99719
12.8941	12.7501	0.329104	0.997475
12.8945	12.7505	0.326627	0.994343
12.895	12.751	0.327148	1.00036
12.8955	12.7515	0.328714	1.00661
12.8959	12.752	0.327781	0.996679
12.8964	12.7524	0.327433	0.995088
12.8969	12.7529	0.327596	0.995565
12.8974	12.7533	0.326749	0.995777
12.8978	12.7538	0.326943	1.00021
12.8983	12.7543	0.326976	0.99746
12.8988	12.7547	0.329327	1.00238
