# 1304     AichiSR QXAFS
# Start     : 8.9544
# End       : 9.0544
# Dir       : Backward
# Points    : 300
# ScanTime  : 1.01549
# Date      : 13.04.23 22:19
# Ring Cur. : 25.6[mA]
12.7557	12.6117	0.298597	0.227656
12.7562	12.6122	0.298071	0.227963
12.7566	12.6126	0.301218	0.230351
12.7571	12.6131	0.301306	0.232544
12.7576	12.6136	0.298865	0.232211
12.7581	12.6141	0.298895	0.231524
12.7585	12.6145	0.302845	0.232933
12.759	12.615	0.301285	0.232745
12.7595	12.6155	0.300717	0.234143
12.7599	12.616	0.300842	0.235831
12.7604	12.6164	0.302621	0.234558
12.7609	12.6169	0.30042	0.233054
12.7614	12.6174	0.303762	0.235128
12.7618	12.6179	0.303911	0.236545
12.7623	12.6183	0.300434	0.235908
12.7628	12.6188	0.30131	0.235419
12.7632	12.6193	0.302287	0.234286
12.7637	12.6197	0.303615	0.23479
12.7642	12.6202	0.3015	0.237554
12.7647	12.6207	0.302207	0.237203
12.7651	12.6212	0.301327	0.23697
12.7656	12.6216	0.302474	0.234219
12.7661	12.6221	0.303941	0.236953
12.7666	12.6226	0.302729	0.235784
12.767	12.623	0.302169	0.239606
12.7675	12.6235	0.303383	0.237127
12.768	12.624	0.302954	0.238176
12.7684	12.6245	0.305635	0.239768
12.7689	12.6249	0.302156	0.240139
12.7694	12.6254	0.304693	0.242125
12.7699	12.6259	0.302825	0.24168
12.7703	12.6264	0.302952	0.240104
12.7708	12.6268	0.304142	0.242083
12.7713	12.6273	0.305142	0.244294
12.7717	12.6278	0.302516	0.24485
12.7722	12.6283	0.300984	0.24153
12.7727	12.6288	0.303944	0.242709
12.7732	12.6292	0.304658	0.244043
12.7736	12.6297	0.303748	0.24382
12.7741	12.6301	0.30447	0.245812
12.7746	12.6306	0.304435	0.243852
12.7751	12.6311	0.30349	0.242726
12.7755	12.6316	0.305296	0.244266
12.776	12.632	0.304806	0.244704
12.7765	12.6325	0.304914	0.244349
12.7769	12.633	0.304045	0.242434
12.7774	12.6334	0.305192	0.242718
12.7779	12.6339	0.305171	0.24331
12.7784	12.6344	0.305598	0.244974
12.7788	12.6348	0.303135	0.244334
12.7793	12.6353	0.303739	0.243807
12.7798	12.6358	0.305127	0.242993
12.7802	12.6363	0.306629	0.245502
12.7807	12.6368	0.306245	0.246478
12.7812	12.6372	0.304953	0.246814
12.7817	12.6377	0.306448	0.247091
12.7821	12.6382	0.307004	0.246082
12.7826	12.6386	0.306701	0.248527
12.7831	12.6391	0.304822	0.249483
12.7836	12.6396	0.304732	0.250888
12.784	12.64	0.304997	0.248959
12.7845	12.6405	0.305008	0.24831
12.785	12.641	0.307317	0.249949
12.7854	12.6415	0.3057	0.251951
12.7859	12.6419	0.304134	0.251094
12.7864	12.6424	0.304984	0.249843
12.7869	12.6428	0.305781	0.248568
12.7873	12.6433	0.30655	0.248784
12.7878	12.6438	0.3051	0.249895
12.7883	12.6442	0.304724	0.250144
12.7887	12.6447	0.304509	0.2468
12.7892	12.6452	0.303135	0.245318
12.7897	12.6457	0.304554	0.246385
12.7902	12.6462	0.305287	0.245838
12.7906	12.6466	0.304776	0.2435
12.7911	12.6471	0.305431	0.243258
12.7916	12.6476	0.307821	0.242468
12.7921	12.6481	0.308107	0.241908
12.7925	12.6486	0.306233	0.241191
12.793	12.649	0.307524	0.240499
12.7935	12.6495	0.306816	0.236422
12.7939	12.65	0.306822	0.233638
12.7944	12.6504	0.30953	0.233613
12.7949	12.6509	0.310069	0.233362
12.7954	12.6514	0.30552	0.229972
12.7958	12.6519	0.306107	0.227274
12.7963	12.6523	0.310612	0.227201
12.7968	12.6528	0.310603	0.225618
12.7972	12.6533	0.309529	0.224814
12.7977	12.6537	0.309107	0.223156
12.7982	12.6542	0.310426	0.219668
12.7987	12.6547	0.308569	0.216847
12.7991	12.6552	0.310912	0.218111
12.7996	12.6556	0.309713	0.217674
12.8001	12.6561	0.307569	0.215309
12.8006	12.6566	0.306464	0.212771
12.801	12.6571	0.31197	0.213849
12.8015	12.6576	0.310987	0.215583
12.802	12.658	0.308846	0.214271
12.8024	12.6585	0.310278	0.214344
12.8029	12.659	0.309478	0.214447
12.8034	12.6594	0.3108	0.215041
12.8039	12.6599	0.310035	0.21704
12.8043	12.6604	0.311157	0.219488
12.8048	12.6608	0.311687	0.220248
12.8053	12.6613	0.310513	0.218427
12.8057	12.6618	0.313209	0.222229
12.8062	12.6623	0.31208	0.223109
12.8067	12.6627	0.311447	0.226258
12.8072	12.6632	0.311126	0.227319
12.8076	12.6636	0.309346	0.227072
12.8081	12.6641	0.311492	0.228572
12.8086	12.6646	0.313085	0.232613
12.8091	12.6651	0.313102	0.235133
12.8095	12.6655	0.310412	0.235203
12.81	12.666	0.31181	0.236038
12.8105	12.6665	0.314143	0.238174
12.8109	12.667	0.312257	0.240215
12.8114	12.6674	0.313348	0.243897
12.8119	12.6679	0.313121	0.245675
12.8124	12.6684	0.310789	0.245016
12.8128	12.6689	0.311965	0.247458
12.8133	12.6693	0.313476	0.250775
12.8138	12.6698	0.312645	0.254799
12.8142	12.6702	0.311612	0.254338
12.8147	12.6707	0.312108	0.254807
12.8152	12.6712	0.314828	0.257879
12.8157	12.6717	0.313403	0.260793
12.8161	12.6721	0.313673	0.263682
12.8166	12.6726	0.313325	0.264127
12.8171	12.6731	0.312913	0.263611
12.8176	12.6735	0.313008	0.262809
12.818	12.674	0.314749	0.266936
12.8185	12.6745	0.313416	0.269525
12.819	12.675	0.312545	0.268636
12.8194	12.6754	0.311304	0.267025
12.8199	12.6759	0.315081	0.269561
12.8204	12.6764	0.313574	0.270073
12.8209	12.6769	0.312559	0.270402
12.8213	12.6774	0.312971	0.272548
12.8218	12.6778	0.313434	0.269886
12.8223	12.6783	0.31367	0.269912
12.8227	12.6788	0.314147	0.271555
12.8232	12.6792	0.317129	0.272825
12.8237	12.6797	0.312487	0.269474
12.8242	12.6802	0.313827	0.26557
12.8246	12.6807	0.317895	0.266601
12.8251	12.6811	0.313557	0.263387
12.8256	12.6816	0.313268	0.261062
12.8261	12.6821	0.314678	0.260868
12.8265	12.6825	0.312805	0.255246
12.827	12.683	0.312369	0.252191
12.8275	12.6835	0.313918	0.251747
12.8279	12.6839	0.314603	0.251208
12.8284	12.6844	0.312385	0.247112
12.8289	12.6849	0.311836	0.241858
12.8294	12.6854	0.314709	0.241699
12.8298	12.6859	0.312006	0.238302
12.8303	12.6863	0.313096	0.236863
12.8308	12.6868	0.313917	0.232999
12.8312	12.6873	0.31491	0.227554
12.8317	12.6878	0.31443	0.224825
12.8322	12.6883	0.315647	0.224369
12.8327	12.6887	0.315542	0.221885
12.8331	12.6892	0.314834	0.218849
12.8336	12.6896	0.314963	0.217217
12.8341	12.6901	0.317139	0.21752
12.8346	12.6906	0.314605	0.217775
12.835	12.6911	0.315102	0.220952
12.8355	12.6915	0.316097	0.223603
12.836	12.692	0.314587	0.225431
12.8364	12.6924	0.315333	0.229504
12.8369	12.6929	0.316046	0.236625
12.8374	12.6934	0.315398	0.241206
12.8379	12.6938	0.313703	0.243467
12.8383	12.6943	0.314508	0.246814
12.8388	12.6948	0.318172	0.251626
12.8393	12.6953	0.313674	0.251986
12.8397	12.6958	0.314226	0.255891
12.8402	12.6962	0.314843	0.257625
12.8407	12.6967	0.312611	0.25342
12.8412	12.6972	0.313207	0.252526
12.8416	12.6977	0.313979	0.252758
12.8421	12.6981	0.314659	0.25327
12.8426	12.6986	0.312874	0.248518
12.8431	12.699	0.313133	0.244634
12.8435	12.6995	0.315931	0.24353
12.844	12.7	0.313511	0.23795
12.8445	12.7004	0.313655	0.236005
12.8449	12.7009	0.314217	0.231396
12.8454	12.7014	0.313445	0.227478
12.8459	12.7019	0.314829	0.223842
12.8464	12.7023	0.314054	0.222573
12.8468	12.7028	0.31182	0.221537
12.8473	12.7033	0.312454	0.220167
12.8478	12.7037	0.314033	0.221765
12.8482	12.7042	0.314918	0.224587
12.8487	12.7047	0.314543	0.230271
12.8492	12.7052	0.313901	0.235957
12.8497	12.7057	0.315345	0.241427
12.8501	12.7062	0.31352	0.247604
12.8506	12.7066	0.315828	0.258017
12.8511	12.7071	0.315793	0.269519
12.8516	12.7076	0.315662	0.280809
12.852	12.7081	0.31401	0.290884
12.8525	12.7085	0.31457	0.30236
12.853	12.709	0.318177	0.318204
12.8534	12.7095	0.316942	0.330304
12.8539	12.7099	0.313955	0.342734
12.8544	12.7104	0.315761	0.356826
12.8549	12.7109	0.315316	0.369008
12.8553	12.7114	0.318077	0.38266
12.8558	12.7118	0.318083	0.399132
12.8563	12.7123	0.316939	0.407571
12.8567	12.7128	0.313852	0.415521
12.8572	12.7132	0.314856	0.421828
12.8577	12.7137	0.318192	0.432525
12.8582	12.7142	0.315216	0.44123
12.8586	12.7146	0.315333	0.449003
12.8591	12.7151	0.316134	0.454351
12.8596	12.7156	0.313703	0.461316
12.8601	12.7161	0.315834	0.471254
12.8605	12.7166	0.316514	0.481609
12.861	12.717	0.314676	0.490346
12.8615	12.7175	0.312489	0.49416
12.8619	12.718	0.316254	0.499262
12.8624	12.7185	0.316878	0.504461
12.8629	12.7189	0.31538	0.50024
12.8634	12.7194	0.314821	0.499784
12.8638	12.7198	0.315674	0.494866
12.8643	12.7203	0.314149	0.487778
12.8648	12.7208	0.314671	0.486131
12.8652	12.7213	0.315878	0.490644
12.8657	12.7217	0.314781	0.499695
12.8662	12.7222	0.313168	0.505166
12.8667	12.7227	0.313755	0.526416
12.8671	12.7231	0.315685	0.559972
12.8676	12.7236	0.314764	0.601105
12.8681	12.7241	0.311804	0.646594
12.8686	12.7245	0.31003	0.695181
12.869	12.725	0.311515	0.739572
12.8695	12.7255	0.312453	0.783196
12.87	12.726	0.315423	0.827035
12.8704	12.7264	0.315038	0.850144
12.8709	12.7269	0.313842	0.868627
12.8714	12.7274	0.314226	0.885077
12.8719	12.7279	0.318547	0.901331
12.8723	12.7283	0.316253	0.9084
12.8728	12.7288	0.315792	0.917553
12.8733	12.7293	0.318441	0.925862
12.8737	12.7297	0.316552	0.927534
12.8742	12.7302	0.316478	0.928598
12.8747	12.7307	0.318314	0.940688
12.8752	12.7312	0.319344	0.948468
12.8756	12.7316	0.316596	0.938704
12.8761	12.7321	0.317358	0.943363
12.8766	12.7326	0.319704	0.952672
12.8771	12.733	0.319729	0.953397
12.8775	12.7335	0.317153	0.953347
12.878	12.734	0.318518	0.956827
12.8785	12.7345	0.318708	0.95537
12.8789	12.7349	0.319377	0.955168
12.8794	12.7354	0.320121	0.961009
12.8799	12.7359	0.320808	0.967141
12.8804	12.7364	0.318593	0.961013
12.8808	12.7369	0.318461	0.961527
12.8813	12.7373	0.321872	0.966337
12.8818	12.7378	0.319854	0.971039
12.8822	12.7383	0.320176	0.97331
12.8827	12.7388	0.3203	0.96829
12.8832	12.7392	0.321917	0.968958
12.8837	12.7397	0.321848	0.969315
12.8841	12.7402	0.324474	0.977665
12.8846	12.7406	0.322138	0.979498
12.8851	12.7411	0.321489	0.975323
12.8856	12.7416	0.322344	0.977081
12.886	12.7421	0.323641	0.977777
12.8865	12.7425	0.323201	0.981629
12.887	12.743	0.322039	0.981714
12.8874	12.7435	0.324171	0.981321
12.8879	12.7439	0.321356	0.980695
12.8884	12.7444	0.322841	0.978134
12.8889	12.7449	0.32321	0.986017
12.8893	12.7454	0.323934	0.989442
12.8898	12.7458	0.32283	0.98337
12.8903	12.7463	0.324391	0.982348
12.8907	12.7468	0.326869	0.989026
12.8912	12.7473	0.325191	0.991088
12.8917	12.7477	0.324945	0.991942
12.8922	12.7482	0.325823	0.993418
12.8926	12.7487	0.32525	0.990237
12.8931	12.7491	0.322991	0.986473
12.8936	12.7496	0.327516	0.992252
12.8941	12.7501	0.325715	0.997075
12.8945	12.7505	0.323773	0.987181
12.895	12.751	0.325242	0.988005
12.8955	12.7515	0.324684	0.991722
12.8959	12.752	0.324665	0.993714
12.8964	12.7524	0.324458	0.995417
12.8969	12.7529	0.326123	0.994942
12.8974	12.7533	0.32686	0.992841
12.8978	12.7538	0.325465	0.991223
12.8983	12.7543	0.328838	1.00048
12.8988	12.7548	0.327297	1.0022
