# 1304     AichiSR QXAFS
# Start     : 8.9544
# End       : 9.0544
# Dir       : Forward
# Points    : 300
# ScanTime  : 1.01549
# Date      : 13.04.23 22:33
# Ring Cur. : 25.6[mA]
12.7557	12.7558	0.406246	1.23735
12.7562	12.7553	0.405044	1.23617
12.7566	12.7548	0.404539	1.23493
12.7571	12.7544	0.406758	1.23502
12.7576	12.7539	0.406184	1.23666
12.7581	12.7534	0.404485	1.23652
12.7585	12.753	0.404898	1.23423
12.759	12.7525	0.403564	1.2333
12.7595	12.752	0.406763	1.23272
12.7599	12.7516	0.407146	1.23587
12.7604	12.7511	0.40472	1.23626
12.7609	12.7506	0.402733	1.23291
12.7614	12.7501	0.404793	1.23076
12.7618	12.7497	0.405394	1.23096
12.7623	12.7492	0.404261	1.23336
12.7628	12.7488	0.403668	1.23208
12.7632	12.7483	0.4043	1.23283
12.7637	12.7478	0.404491	1.23072
12.7642	12.7474	0.406225	1.23137
12.7647	12.7469	0.405651	1.2302
12.7651	12.7464	0.403839	1.23388
12.7656	12.7459	0.404624	1.22617
12.7661	12.7454	0.404833	1.22925
12.7666	12.745	0.405516	1.22817
12.767	12.7445	0.403419	1.23129
12.7675	12.744	0.404496	1.22912
12.768	12.7435	0.403802	1.22777
12.7684	12.7431	0.403069	1.22566
12.7689	12.7426	0.404196	1.22651
12.7694	12.7421	0.404505	1.22775
12.7699	12.7417	0.40377	1.22626
12.7703	12.7412	0.40462	1.22301
12.7708	12.7407	0.403368	1.22212
12.7713	12.7402	0.404722	1.22256
12.7717	12.7398	0.4034	1.22277
12.7722	12.7393	0.40176	1.22307
12.7727	12.7389	0.403167	1.21901
12.7732	12.7384	0.40312	1.21931
12.7736	12.7379	0.403833	1.21871
12.7741	12.7374	0.404715	1.22078
12.7746	12.737	0.401872	1.22123
12.7751	12.7365	0.403478	1.21499
12.7755	12.736	0.403849	1.21274
12.776	12.7355	0.403519	1.21473
12.7765	12.735	0.403952	1.21384
12.7769	12.7346	0.400491	1.21456
12.7774	12.7341	0.401699	1.20661
12.7779	12.7336	0.402956	1.20506
12.7784	12.7331	0.402772	1.20131
12.7788	12.7327	0.402482	1.20497
12.7793	12.7322	0.400656	1.20339
12.7798	12.7317	0.400471	1.19919
12.7802	12.7313	0.403685	1.19483
12.7807	12.7308	0.402062	1.19164
12.7812	12.7303	0.402578	1.18955
12.7817	12.7298	0.401338	1.18541
12.7821	12.7294	0.402264	1.17972
12.7826	12.7289	0.401416	1.17466
12.7831	12.7284	0.400684	1.16557
12.7836	12.728	0.401867	1.16008
12.784	12.7275	0.399758	1.15243
12.7845	12.727	0.399053	1.13853
12.785	12.7265	0.39929	1.123
12.7854	12.7261	0.399581	1.10096
12.7859	12.7256	0.396286	1.07903
12.7864	12.7251	0.395102	1.04253
12.7869	12.7246	0.392845	0.995492
12.7873	12.7242	0.394799	0.939081
12.7878	12.7237	0.396757	0.879325
12.7883	12.7232	0.398558	0.820784
12.7887	12.7228	0.397757	0.760201
12.7892	12.7223	0.399051	0.706808
12.7897	12.7218	0.398473	0.667059
12.7902	12.7214	0.400434	0.641936
12.7906	12.7209	0.400971	0.627038
12.7911	12.7204	0.398143	0.618424
12.7916	12.7199	0.399702	0.6176
12.7921	12.7195	0.399621	0.618316
12.7925	12.719	0.398513	0.623992
12.793	12.7186	0.3997	0.630711
12.7935	12.7181	0.399721	0.634535
12.7939	12.7176	0.397542	0.633112
12.7944	12.7171	0.398026	0.630588
12.7949	12.7167	0.398933	0.626616
12.7954	12.7162	0.399144	0.622044
12.7958	12.7157	0.397609	0.607048
12.7963	12.7152	0.39638	0.596738
12.7968	12.7147	0.398896	0.582725
12.7972	12.7143	0.39825	0.573663
12.7977	12.7138	0.397929	0.563217
12.7982	12.7133	0.396733	0.553505
12.7987	12.7129	0.395603	0.5406
12.7991	12.7124	0.398228	0.531243
12.7996	12.7119	0.3979	0.520725
12.8001	12.7115	0.398106	0.507898
12.8006	12.711	0.39606	0.493927
12.801	12.7105	0.397685	0.47885
12.8015	12.71	0.397637	0.461543
12.802	12.7096	0.396554	0.44804
12.8024	12.7091	0.39794	0.433735
12.8029	12.7086	0.396739	0.415632
12.8034	12.7082	0.396094	0.395561
12.8039	12.7077	0.395963	0.379207
12.8043	12.7072	0.396716	0.366289
12.8048	12.7067	0.39705	0.351219
12.8053	12.7062	0.396986	0.338128
12.8057	12.7058	0.397032	0.322861
12.8062	12.7053	0.396508	0.31074
12.8067	12.7048	0.399058	0.305325
12.8072	12.7043	0.397903	0.297454
12.8076	12.7038	0.396213	0.289387
12.8081	12.7034	0.395202	0.281614
12.8086	12.7029	0.396512	0.27843
12.8091	12.7024	0.395398	0.278972
12.8095	12.702	0.396595	0.279691
12.81	12.7015	0.395921	0.281621
12.8105	12.701	0.395245	0.280298
12.8109	12.7005	0.397258	0.286109
12.8114	12.7001	0.396347	0.290474
12.8119	12.6996	0.395329	0.296783
12.8124	12.6992	0.394644	0.301706
12.8128	12.6987	0.395045	0.302806
12.8133	12.6982	0.396492	0.307238
12.8138	12.6978	0.395022	0.312639
12.8142	12.6973	0.394869	0.317984
12.8147	12.6968	0.394454	0.317922
12.8152	12.6963	0.395731	0.319748
12.8157	12.6959	0.396694	0.319604
12.8161	12.6954	0.396053	0.32152
12.8166	12.6949	0.396184	0.320432
12.8171	12.6944	0.395328	0.318104
12.8176	12.6939	0.394355	0.313246
12.818	12.6935	0.397155	0.308743
12.8185	12.693	0.395683	0.305596
12.819	12.6926	0.394911	0.300302
12.8194	12.6921	0.394917	0.295104
12.8199	12.6916	0.396421	0.289152
12.8204	12.6912	0.397327	0.28245
12.8209	12.6907	0.396718	0.278964
12.8213	12.6902	0.396682	0.277545
12.8218	12.6897	0.395699	0.27436
12.8223	12.6893	0.39671	0.272118
12.8227	12.6888	0.397988	0.272108
12.8232	12.6884	0.397851	0.27562
12.8237	12.6879	0.396951	0.277249
12.8242	12.6874	0.396892	0.280148
12.8246	12.6869	0.395122	0.282672
12.8251	12.6864	0.396229	0.286795
12.8256	12.686	0.395134	0.292094
12.8261	12.6855	0.395036	0.297178
12.8265	12.685	0.394114	0.301186
12.827	12.6845	0.394412	0.302387
12.8275	12.684	0.394321	0.307844
12.8279	12.6836	0.395387	0.310792
12.8284	12.6831	0.395284	0.31351
12.8289	12.6826	0.393972	0.317532
12.8294	12.6822	0.393363	0.318768
12.8298	12.6817	0.397915	0.322247
12.8303	12.6812	0.397941	0.32634
12.8308	12.6808	0.397453	0.330733
12.8312	12.6803	0.396678	0.331951
12.8317	12.6798	0.397224	0.334541
12.8322	12.6793	0.400059	0.336973
12.8327	12.6789	0.397452	0.339367
12.8331	12.6784	0.397448	0.341998
12.8336	12.6779	0.397808	0.342446
12.8341	12.6775	0.398169	0.342892
12.8346	12.677	0.399939	0.344193
12.835	12.6765	0.39916	0.344978
12.8355	12.676	0.396979	0.344585
12.836	12.6755	0.398254	0.343361
12.8364	12.6751	0.398044	0.340739
12.8369	12.6746	0.399675	0.341555
12.8374	12.6741	0.399328	0.340869
12.8379	12.6736	0.397075	0.339917
12.8383	12.6732	0.398569	0.338328
12.8388	12.6727	0.396495	0.33756
12.8393	12.6722	0.399394	0.3361
12.8397	12.6718	0.398969	0.334618
12.8402	12.6713	0.397669	0.333151
12.8407	12.6708	0.398635	0.331367
12.8412	12.6703	0.397856	0.327773
12.8416	12.6699	0.399597	0.326644
12.8421	12.6694	0.400338	0.326152
12.8426	12.669	0.398902	0.3226
12.8431	12.6685	0.397757	0.31873
12.8435	12.668	0.397932	0.315733
12.844	12.6676	0.400533	0.31322
12.8445	12.6671	0.399584	0.312363
12.8449	12.6666	0.398964	0.310795
12.8454	12.6661	0.400028	0.307034
12.8459	12.6656	0.398456	0.304082
12.8464	12.6652	0.400573	0.301438
12.8468	12.6647	0.399715	0.300456
12.8473	12.6642	0.398162	0.298209
12.8478	12.6637	0.398837	0.295037
12.8482	12.6633	0.398797	0.290811
12.8487	12.6628	0.400486	0.290846
12.8492	12.6624	0.399309	0.288798
12.8497	12.6619	0.398382	0.288587
12.8501	12.6614	0.397989	0.285606
12.8506	12.6609	0.398669	0.282361
12.8511	12.6605	0.399948	0.281591
12.8516	12.66	0.399661	0.280786
12.852	12.6595	0.397183	0.279003
12.8525	12.6591	0.398556	0.275949
12.853	12.6586	0.398592	0.273721
12.8534	12.6581	0.399245	0.274188
12.8539	12.6577	0.396726	0.274001
12.8544	12.6572	0.395853	0.274725
12.8549	12.6567	0.397202	0.272937
12.8553	12.6562	0.397538	0.273242
12.8558	12.6557	0.397799	0.273796
12.8563	12.6553	0.398696	0.277041
12.8567	12.6548	0.398217	0.278327
12.8572	12.6543	0.399314	0.278957
12.8577	12.6538	0.398922	0.27965
12.8582	12.6534	0.399855	0.281336
12.8586	12.6529	0.400332	0.285443
12.8591	12.6524	0.398995	0.28758
12.8596	12.652	0.398771	0.288793
12.8601	12.6515	0.398606	0.290459
12.8605	12.651	0.398884	0.294093
12.861	12.6505	0.399607	0.298518
12.8615	12.6501	0.398037	0.299914
12.8619	12.6496	0.396722	0.300662
12.8624	12.6491	0.399451	0.303198
12.8629	12.6487	0.397703	0.305081
12.8634	12.6482	0.3984	0.309368
12.8638	12.6477	0.395389	0.311392
12.8643	12.6472	0.396051	0.311798
12.8648	12.6467	0.395727	0.311568
12.8652	12.6463	0.394509	0.313115
12.8657	12.6458	0.396231	0.317053
12.8662	12.6453	0.394005	0.316454
12.8667	12.6448	0.394057	0.317235
12.8671	12.6444	0.393986	0.316429
12.8676	12.6439	0.39398	0.317729
12.8681	12.6434	0.394347	0.320866
12.8686	12.6429	0.39353	0.323115
12.869	12.6425	0.396992	0.322065
12.8695	12.642	0.398903	0.322667
12.87	12.6416	0.397014	0.325262
12.8704	12.6411	0.398473	0.325701
12.8709	12.6406	0.398193	0.325843
12.8714	12.6401	0.397516	0.322937
12.8719	12.6397	0.397583	0.323061
12.8723	12.6392	0.397804	0.323443
12.8728	12.6388	0.398809	0.324909
12.8733	12.6383	0.396909	0.322783
12.8737	12.6378	0.395627	0.321298
12.8742	12.6373	0.396997	0.319775
12.8747	12.6369	0.39767	0.318835
12.8752	12.6364	0.395579	0.321275
12.8756	12.6359	0.395673	0.318194
12.8761	12.6354	0.39622	0.316802
12.8766	12.635	0.3972	0.31666
12.8771	12.6345	0.397925	0.316945
12.8775	12.634	0.396101	0.317926
12.878	12.6335	0.394266	0.316447
12.8785	12.6331	0.395955	0.314824
12.8789	12.6326	0.396388	0.314561
12.8794	12.6321	0.396946	0.314844
12.8799	12.6317	0.397602	0.316791
12.8804	12.6312	0.395038	0.316186
12.8808	12.6307	0.394863	0.314924
12.8813	12.6302	0.395245	0.314431
12.8818	12.6298	0.395971	0.314846
12.8822	12.6293	0.396266	0.318018
12.8827	12.6288	0.395215	0.315767
12.8832	12.6284	0.394521	0.314624
12.8837	12.6279	0.395761	0.317017
12.8841	12.6274	0.395502	0.315572
12.8846	12.627	0.395895	0.316702
12.8851	12.6265	0.394368	0.316472
12.8856	12.626	0.393888	0.314336
12.886	12.6255	0.394939	0.312355
12.8865	12.625	0.3953	0.313695
12.887	12.6246	0.395396	0.313966
12.8874	12.6241	0.395042	0.312519
12.8879	12.6236	0.395282	0.30986
12.8884	12.6231	0.395985	0.309709
12.8889	12.6227	0.392855	0.310194
12.8893	12.6222	0.394915	0.310451
12.8898	12.6217	0.394014	0.308733
12.8903	12.6213	0.393331	0.306772
12.8907	12.6208	0.394138	0.306008
12.8912	12.6203	0.396708	0.306086
12.8917	12.6198	0.393706	0.306753
12.8922	12.6194	0.393108	0.306822
12.8926	12.6189	0.393019	0.305404
12.8931	12.6184	0.395397	0.304881
12.8936	12.618	0.393957	0.306717
12.8941	12.6175	0.393765	0.307513
12.8945	12.617	0.394644	0.305215
12.895	12.6165	0.392794	0.304419
12.8955	12.6161	0.393193	0.304933
12.8959	12.6156	0.3931	0.30561
12.8964	12.6151	0.392981	0.305949
12.8969	12.6146	0.392603	0.305042
12.8974	12.6141	0.391878	0.303843
12.8978	12.6137	0.393578	0.302932
12.8983	12.6132	0.393769	0.302472
12.8988	12.6127	0.392618	0.304148
