# 1304     AichiSR QXAFS
# Start     : 8.9544
# End       : 9.0544
# Dir       : Forward
# Points    : 300
# ScanTime  : 1.01549
# Date      : 13.04.23 22:29
# Ring Cur. : 25.6[mA]
12.7557	12.7558	0.400079	1.21723
12.7562	12.7553	0.397545	1.21979
12.7566	12.7548	0.397359	1.21393
12.7571	12.7543	0.397531	1.21348
12.7576	12.7539	0.399983	1.21569
12.7581	12.7534	0.399715	1.21706
12.7585	12.7529	0.400078	1.22
12.759	12.7525	0.399889	1.21319
12.7595	12.752	0.398249	1.21085
12.7599	12.7515	0.403986	1.22465
12.7604	12.7511	0.401916	1.22424
12.7609	12.7506	0.39846	1.21455
12.7614	12.7501	0.397975	1.21222
12.7618	12.7496	0.398058	1.20902
12.7623	12.7492	0.399565	1.2105
12.7628	12.7487	0.397381	1.21193
12.7632	12.7483	0.397449	1.21516
12.7637	12.7478	0.398495	1.21111
12.7642	12.7473	0.398601	1.20661
12.7647	12.7468	0.398527	1.20965
12.7651	12.7464	0.398626	1.21179
12.7656	12.7459	0.396977	1.20673
12.7661	12.7454	0.397914	1.20979
12.7666	12.7449	0.395603	1.20704
12.767	12.7445	0.397757	1.20789
12.7675	12.744	0.397298	1.20751
12.768	12.7435	0.396176	1.20674
12.7684	12.743	0.397362	1.20327
12.7689	12.7426	0.395583	1.20041
12.7694	12.7421	0.396513	1.20206
12.7699	12.7417	0.398087	1.20745
12.7703	12.7412	0.397212	1.20794
12.7708	12.7407	0.397448	1.20635
12.7713	12.7402	0.397267	1.20348
12.7717	12.7398	0.398393	1.2052
12.7722	12.7393	0.398398	1.20432
12.7727	12.7388	0.397236	1.20459
12.7732	12.7384	0.397183	1.20475
12.7736	12.7379	0.398815	1.2031
12.7741	12.7374	0.399288	1.201
12.7746	12.7369	0.39955	1.20249
12.7751	12.7365	0.397001	1.20051
12.7755	12.736	0.397957	1.19979
12.776	12.7355	0.397979	1.19783
12.7765	12.735	0.398473	1.19425
12.7769	12.7345	0.397569	1.19903
12.7774	12.734	0.398018	1.19709
12.7779	12.7336	0.398327	1.19449
12.7784	12.7331	0.397127	1.18961
12.7788	12.7326	0.399165	1.1894
12.7793	12.7322	0.399789	1.19087
12.7798	12.7317	0.397131	1.18768
12.7802	12.7312	0.397408	1.18367
12.7807	12.7307	0.397018	1.17746
12.7812	12.7303	0.397906	1.17452
12.7817	12.7298	0.397988	1.17395
12.7821	12.7293	0.3976	1.1693
12.7826	12.7289	0.396904	1.16405
12.7831	12.7284	0.39754	1.15444
12.7836	12.7279	0.398094	1.1489
12.784	12.7275	0.398085	1.14474
12.7845	12.727	0.396953	1.12872
12.785	12.7265	0.395414	1.11151
12.7854	12.726	0.396133	1.09165
12.7859	12.7256	0.39554	1.05924
12.7864	12.7251	0.394902	1.02385
12.7869	12.7246	0.392019	0.97895
12.7873	12.7241	0.39261	0.920924
12.7878	12.7236	0.39322	0.854441
12.7883	12.7232	0.395992	0.797721
12.7887	12.7227	0.398245	0.743045
12.7892	12.7223	0.399024	0.693049
12.7897	12.7218	0.397923	0.656947
12.7902	12.7213	0.398292	0.635415
12.7906	12.7208	0.400899	0.623095
12.7911	12.7204	0.399701	0.619624
12.7916	12.7199	0.398435	0.61957
12.7921	12.7194	0.397582	0.617028
12.7925	12.719	0.397785	0.623393
12.793	12.7185	0.398136	0.62871
12.7935	12.7181	0.398218	0.634698
12.7939	12.7176	0.39836	0.636031
12.7944	12.7171	0.397768	0.628969
12.7949	12.7166	0.398892	0.622092
12.7954	12.7162	0.399438	0.614519
12.7958	12.7157	0.398153	0.603693
12.7963	12.7152	0.397325	0.59331
12.7968	12.7147	0.397738	0.579834
12.7972	12.7142	0.397333	0.568547
12.7977	12.7138	0.400198	0.561116
12.7982	12.7133	0.398736	0.553948
12.7987	12.7128	0.397929	0.540894
12.7991	12.7124	0.398481	0.529261
12.7996	12.7119	0.399719	0.519134
12.8001	12.7114	0.398895	0.50557
12.8006	12.711	0.399131	0.491957
12.801	12.7105	0.399459	0.477888
12.8015	12.71	0.397213	0.460403
12.802	12.7095	0.398762	0.442479
12.8024	12.7091	0.400702	0.428155
12.8029	12.7086	0.401228	0.41357
12.8034	12.7081	0.397601	0.394654
12.8039	12.7077	0.398771	0.376589
12.8043	12.7072	0.399918	0.360817
12.8048	12.7067	0.400766	0.347981
12.8053	12.7062	0.400295	0.337389
12.8057	12.7057	0.399894	0.323121
12.8062	12.7053	0.399126	0.31125
12.8067	12.7048	0.399598	0.299663
12.8072	12.7043	0.400487	0.295671
12.8076	12.7038	0.401037	0.289085
12.8081	12.7033	0.39815	0.284862
12.8086	12.7029	0.39824	0.279498
12.8091	12.7024	0.401316	0.280159
12.8095	12.7019	0.400277	0.281042
12.81	12.7015	0.399966	0.284652
12.8105	12.701	0.398651	0.28797
12.8109	12.7005	0.399378	0.289667
12.8114	12.7	0.398763	0.294097
12.8119	12.6996	0.399282	0.299533
12.8124	12.6991	0.399676	0.305402
12.8128	12.6987	0.39891	0.309599
12.8133	12.6982	0.398154	0.312468
12.8138	12.6977	0.398444	0.314714
12.8142	12.6973	0.397821	0.318095
12.8147	12.6968	0.399011	0.322266
12.8152	12.6963	0.398384	0.324532
12.8157	12.6958	0.396502	0.323187
12.8161	12.6953	0.398043	0.321996
12.8166	12.6949	0.397659	0.321127
12.8171	12.6944	0.399546	0.320477
12.8176	12.6939	0.398849	0.315349
12.818	12.6934	0.397	0.309287
12.8185	12.693	0.398664	0.30493
12.819	12.6925	0.398467	0.299752
12.8194	12.6921	0.399282	0.295318
12.8199	12.6916	0.397422	0.289549
12.8204	12.6911	0.396897	0.282845
12.8209	12.6906	0.398299	0.278817
12.8213	12.6902	0.397972	0.276187
12.8218	12.6897	0.399663	0.276343
12.8223	12.6892	0.396628	0.274288
12.8227	12.6888	0.397666	0.271473
12.8232	12.6883	0.397974	0.273958
12.8237	12.6879	0.39754	0.277879
12.8242	12.6874	0.396295	0.282069
12.8246	12.6869	0.395625	0.286401
12.8251	12.6864	0.395664	0.287907
12.8256	12.6859	0.395742	0.29273
12.8261	12.6855	0.397104	0.298151
12.8265	12.685	0.396888	0.30322
12.827	12.6845	0.393962	0.306672
12.8275	12.684	0.395244	0.307751
12.8279	12.6835	0.395357	0.310884
12.8284	12.6831	0.39571	0.313035
12.8289	12.6826	0.395262	0.319998
12.8294	12.6821	0.395618	0.321212
12.8298	12.6817	0.39581	0.321329
12.8303	12.6812	0.395697	0.325769
12.8308	12.6807	0.396021	0.329985
12.8312	12.6802	0.396355	0.333335
12.8317	12.6798	0.397501	0.335204
12.8322	12.6793	0.397208	0.336607
12.8327	12.6788	0.398146	0.337519
12.8331	12.6784	0.396921	0.340232
12.8336	12.6779	0.397914	0.343463
12.8341	12.6774	0.396135	0.343401
12.8346	12.6769	0.396932	0.342171
12.835	12.6765	0.396697	0.340411
12.8355	12.676	0.396693	0.342356
12.836	12.6755	0.398143	0.3433
12.8364	12.675	0.395561	0.340855
12.8369	12.6745	0.396251	0.338891
12.8374	12.6741	0.397444	0.337707
12.8379	12.6736	0.397984	0.33714
12.8383	12.6731	0.397222	0.33718
12.8388	12.6727	0.396635	0.334876
12.8393	12.6722	0.395952	0.333305
12.8397	12.6717	0.397759	0.331273
12.8402	12.6713	0.396284	0.330878
12.8407	12.6708	0.396374	0.32935
12.8412	12.6703	0.394512	0.327037
12.8416	12.6698	0.394952	0.322339
12.8421	12.6694	0.396367	0.31946
12.8426	12.6689	0.396076	0.31874
12.8431	12.6685	0.395013	0.315384
12.8435	12.668	0.394681	0.314781
12.844	12.6675	0.395305	0.309953
12.8445	12.667	0.396544	0.306913
12.8449	12.6666	0.394609	0.305299
12.8454	12.6661	0.395507	0.304014
12.8459	12.6656	0.395914	0.302119
12.8464	12.6651	0.394581	0.297584
12.8468	12.6647	0.397154	0.295557
12.8473	12.6642	0.395203	0.293326
12.8478	12.6637	0.394617	0.293844
12.8482	12.6632	0.395229	0.290306
12.8487	12.6628	0.393534	0.287297
12.8492	12.6623	0.395649	0.284234
12.8497	12.6619	0.394126	0.282838
12.8501	12.6614	0.39416	0.281866
12.8506	12.6609	0.394712	0.279783
12.8511	12.6604	0.39433	0.277044
12.8516	12.66	0.39441	0.276307
12.852	12.6595	0.394696	0.27488
12.8525	12.659	0.39391	0.274131
12.853	12.6586	0.393306	0.272236
12.8534	12.6581	0.392486	0.271615
12.8539	12.6576	0.393607	0.26943
12.8544	12.6571	0.393093	0.270894
12.8549	12.6567	0.39228	0.272364
12.8553	12.6562	0.391882	0.271606
12.8558	12.6557	0.392467	0.270521
12.8563	12.6552	0.393783	0.271819
12.8567	12.6547	0.393205	0.27357
12.8572	12.6543	0.39299	0.276788
12.8577	12.6538	0.393551	0.278622
12.8582	12.6533	0.393874	0.278517
12.8586	12.6529	0.39309	0.281053
12.8591	12.6524	0.394676	0.284878
12.8596	12.6519	0.394738	0.28695
12.8601	12.6515	0.393073	0.289519
12.8605	12.651	0.393062	0.290203
12.861	12.6505	0.394211	0.292036
12.8615	12.65	0.393113	0.295589
12.8619	12.6496	0.391069	0.298273
12.8624	12.6491	0.393054	0.30091
12.8629	12.6486	0.393648	0.301427
12.8634	12.6482	0.390649	0.303153
12.8638	12.6477	0.391825	0.306251
12.8643	12.6472	0.391883	0.309555
12.8648	12.6467	0.389652	0.310179
12.8652	12.6462	0.38829	0.307867
12.8657	12.6458	0.390073	0.309014
12.8662	12.6453	0.387278	0.311801
12.8667	12.6448	0.388544	0.314107
12.8671	12.6443	0.388349	0.314628
12.8676	12.6439	0.388242	0.313058
12.8681	12.6434	0.388717	0.313638
12.8686	12.6429	0.390335	0.31809
12.869	12.6425	0.391084	0.319518
12.8695	12.642	0.389289	0.318359
12.87	12.6415	0.388948	0.31734
12.8704	12.6411	0.392983	0.316878
12.8709	12.6406	0.392759	0.318485
12.8714	12.6401	0.389763	0.318083
12.8719	12.6396	0.389973	0.319488
12.8723	12.6392	0.390608	0.31701
12.8728	12.6387	0.389222	0.316586
12.8733	12.6383	0.389913	0.315947
12.8737	12.6378	0.389845	0.317802
12.8742	12.6373	0.388965	0.3145
12.8747	12.6368	0.388549	0.312196
12.8752	12.6364	0.391241	0.311635
12.8756	12.6359	0.389128	0.31238
12.8761	12.6354	0.38942	0.31295
12.8766	12.6349	0.389669	0.311569
12.8771	12.6344	0.388005	0.309418
12.8775	12.634	0.391119	0.309442
12.878	12.6335	0.38887	0.309839
12.8785	12.633	0.389634	0.311327
12.8789	12.6326	0.388866	0.309898
12.8794	12.6321	0.387721	0.308341
12.8799	12.6317	0.389719	0.30841
12.8804	12.6312	0.388701	0.308669
12.8808	12.6307	0.388526	0.310848
12.8813	12.6302	0.388942	0.311016
12.8818	12.6297	0.387082	0.308717
12.8822	12.6293	0.388478	0.30742
12.8827	12.6288	0.387443	0.310079
12.8832	12.6284	0.388532	0.312431
12.8837	12.6279	0.386788	0.310247
12.8841	12.6274	0.386373	0.308934
12.8846	12.6269	0.388486	0.310347
12.8851	12.6264	0.386435	0.309193
12.8856	12.626	0.38686	0.310327
12.886	12.6255	0.386466	0.30801
12.8865	12.625	0.385782	0.305495
12.887	12.6245	0.386845	0.305722
12.8874	12.624	0.386741	0.3043
12.8879	12.6236	0.38626	0.305342
12.8884	12.6231	0.385917	0.303483
12.8889	12.6226	0.385525	0.301271
12.8893	12.6222	0.387203	0.301884
12.8898	12.6217	0.384916	0.301741
12.8903	12.6212	0.386074	0.302235
12.8907	12.6207	0.386443	0.300782
12.8912	12.6203	0.384601	0.298446
12.8917	12.6198	0.38555	0.298033
12.8922	12.6193	0.384406	0.298939
12.8926	12.6189	0.38618	0.300112
12.8931	12.6184	0.383594	0.29923
12.8936	12.6179	0.384629	0.297211
12.8941	12.6174	0.386487	0.298562
12.8945	12.617	0.384277	0.298234
12.895	12.6165	0.38337	0.299681
12.8955	12.616	0.383853	0.298318
12.8959	12.6155	0.383151	0.296634
12.8964	12.6151	0.382831	0.297286
12.8969	12.6146	0.383701	0.298108
12.8974	12.6141	0.382229	0.298837
12.8978	12.6136	0.38326	0.297621
12.8983	12.6132	0.383111	0.294213
12.8988	12.6127	0.385632	0.295701
