# 1304     AichiSR QXAFS
# Start     : 8.9544
# End       : 9.0544
# Dir       : Backward
# Points    : 300
# ScanTime  : 1.01549
# Date      : 13.04.23 22:27
# Ring Cur. : 25.4[mA]
12.7557	12.6118	0.294579	0.226709
12.7562	12.6122	0.292693	0.224894
12.7566	12.6127	0.294615	0.22478
12.7571	12.6132	0.297325	0.227959
12.7576	12.6136	0.295896	0.228128
12.7581	12.6141	0.294968	0.230661
12.7585	12.6146	0.295942	0.229921
12.759	12.6151	0.296146	0.229843
12.7595	12.6155	0.299849	0.230414
12.7599	12.616	0.298619	0.232725
12.7604	12.6165	0.297036	0.233236
12.7609	12.617	0.295743	0.231426
12.7614	12.6174	0.297163	0.230991
12.7618	12.6179	0.299575	0.232332
12.7623	12.6184	0.295486	0.230607
12.7628	12.6189	0.296202	0.233628
12.7632	12.6193	0.295836	0.231898
12.7637	12.6198	0.297117	0.230961
12.7642	12.6203	0.297839	0.231406
12.7647	12.6207	0.297983	0.233754
12.7651	12.6212	0.296411	0.233216
12.7656	12.6217	0.294496	0.23031
12.7661	12.6222	0.298284	0.23146
12.7666	12.6226	0.298388	0.233115
12.767	12.6231	0.29863	0.235196
12.7675	12.6236	0.297031	0.235466
12.768	12.624	0.298858	0.236009
12.7684	12.6245	0.296892	0.234566
12.7689	12.625	0.297771	0.234757
12.7694	12.6255	0.298089	0.23815
12.7699	12.626	0.297992	0.239445
12.7703	12.6264	0.295495	0.235586
12.7708	12.6269	0.295349	0.235025
12.7713	12.6274	0.30332	0.240641
12.7717	12.6279	0.30059	0.241015
12.7722	12.6283	0.295966	0.239653
12.7727	12.6288	0.296827	0.238592
12.7732	12.6293	0.297272	0.238659
12.7736	12.6297	0.299015	0.238883
12.7741	12.6302	0.300284	0.240776
12.7746	12.6307	0.298244	0.240441
12.7751	12.6312	0.29826	0.237267
12.7755	12.6316	0.299438	0.238588
12.776	12.6321	0.299354	0.238558
12.7765	12.6326	0.297261	0.23965
12.7769	12.633	0.297575	0.238413
12.7774	12.6335	0.298827	0.240163
12.7779	12.634	0.298762	0.237401
12.7784	12.6344	0.298965	0.237585
12.7788	12.6349	0.297916	0.239421
12.7793	12.6354	0.299462	0.241449
12.7798	12.6359	0.296938	0.238892
12.7802	12.6363	0.299419	0.239437
12.7807	12.6368	0.30163	0.242592
12.7812	12.6373	0.299737	0.243203
12.7817	12.6378	0.300021	0.244386
12.7821	12.6382	0.300977	0.244363
12.7826	12.6387	0.301616	0.243317
12.7831	12.6392	0.301284	0.243893
12.7836	12.6396	0.30347	0.247368
12.784	12.6401	0.300549	0.246716
12.7845	12.6406	0.300457	0.24475
12.785	12.641	0.301953	0.245628
12.7854	12.6415	0.301637	0.245715
12.7859	12.642	0.299704	0.246204
12.7864	12.6424	0.301787	0.247999
12.7869	12.6429	0.302374	0.246792
12.7873	12.6434	0.302233	0.243393
12.7878	12.6438	0.300496	0.245107
12.7883	12.6443	0.302948	0.247444
12.7887	12.6448	0.302334	0.246068
12.7892	12.6453	0.301246	0.243013
12.7897	12.6457	0.302793	0.243936
12.7902	12.6462	0.301262	0.241503
12.7906	12.6467	0.301926	0.241928
12.7911	12.6472	0.301191	0.241172
12.7916	12.6477	0.30361	0.239784
12.7921	12.6481	0.302878	0.238256
12.7925	12.6486	0.303849	0.236
12.793	12.6491	0.304981	0.237107
12.7935	12.6495	0.304281	0.236484
12.7939	12.65	0.306512	0.233775
12.7944	12.6505	0.306801	0.23029
12.7949	12.651	0.309813	0.231627
12.7954	12.6515	0.307644	0.229924
12.7958	12.6519	0.306975	0.228044
12.7963	12.6524	0.307378	0.226314
12.7968	12.6529	0.309091	0.223567
12.7972	12.6533	0.307297	0.22242
12.7977	12.6538	0.307323	0.220691
12.7982	12.6543	0.306211	0.220629
12.7987	12.6547	0.308167	0.216418
12.7991	12.6552	0.307684	0.21513
12.7996	12.6557	0.308446	0.213783
12.8001	12.6562	0.309277	0.215185
12.8006	12.6567	0.307612	0.214581
12.801	12.6571	0.309575	0.21352
12.8015	12.6576	0.310015	0.212469
12.802	12.6581	0.311131	0.213671
12.8024	12.6586	0.310169	0.216527
12.8029	12.659	0.30934	0.2155
12.8034	12.6595	0.309398	0.214973
12.8039	12.6599	0.310315	0.214066
12.8043	12.6604	0.309524	0.217208
12.8048	12.6609	0.310071	0.220064
12.8053	12.6614	0.309754	0.220421
12.8057	12.6618	0.309932	0.22042
12.8062	12.6623	0.310534	0.221789
12.8067	12.6628	0.312266	0.224889
12.8072	12.6632	0.313333	0.228087
12.8076	12.6637	0.310656	0.22924
12.8081	12.6642	0.310419	0.229132
12.8086	12.6646	0.31413	0.231474
12.8091	12.6651	0.31379	0.234939
12.8095	12.6656	0.312958	0.237343
12.81	12.6661	0.312991	0.239345
12.8105	12.6665	0.314097	0.238742
12.8109	12.667	0.313151	0.240765
12.8114	12.6675	0.313181	0.242387
12.8119	12.668	0.313499	0.247053
12.8124	12.6684	0.311944	0.247509
12.8128	12.6689	0.312044	0.246845
12.8133	12.6694	0.31269	0.249515
12.8138	12.6698	0.314134	0.253002
12.8142	12.6703	0.313934	0.257095
12.8147	12.6708	0.313358	0.259257
12.8152	12.6712	0.315017	0.258949
12.8157	12.6717	0.314427	0.260427
12.8161	12.6722	0.313746	0.262314
12.8166	12.6726	0.315956	0.266914
12.8171	12.6731	0.312472	0.265727
12.8176	12.6736	0.312782	0.264258
12.818	12.6741	0.31649	0.268758
12.8185	12.6745	0.31404	0.268576
12.819	12.675	0.313396	0.269492
12.8194	12.6755	0.312903	0.271961
12.8199	12.676	0.314333	0.270376
12.8204	12.6765	0.316492	0.271157
12.8209	12.6769	0.315025	0.271881
12.8213	12.6774	0.31564	0.274218
12.8218	12.6779	0.314395	0.273498
12.8223	12.6784	0.313083	0.271394
12.8227	12.6788	0.318074	0.271696
12.8232	12.6793	0.317096	0.272379
12.8237	12.6798	0.316137	0.270599
12.8242	12.6802	0.314857	0.269531
12.8246	12.6807	0.317081	0.267381
12.8251	12.6812	0.315201	0.263481
12.8256	12.6817	0.314479	0.262143
12.8261	12.6821	0.316386	0.260619
12.8265	12.6826	0.315341	0.257936
12.827	12.6831	0.314044	0.252397
12.8275	12.6835	0.315962	0.251755
12.8279	12.684	0.314759	0.250366
12.8284	12.6845	0.3149	0.248069
12.8289	12.685	0.315021	0.246533
12.8294	12.6854	0.317479	0.24311
12.8298	12.6859	0.317547	0.240182
12.8303	12.6864	0.316059	0.236849
12.8308	12.6869	0.317166	0.235185
12.8312	12.6874	0.316555	0.231432
12.8317	12.6878	0.316849	0.226933
12.8322	12.6883	0.318874	0.223666
12.8327	12.6888	0.316465	0.221725
12.8331	12.6892	0.317814	0.221812
12.8336	12.6897	0.318244	0.219511
12.8341	12.6902	0.317167	0.218248
12.8346	12.6906	0.317827	0.219388
12.835	12.6911	0.31816	0.222562
12.8355	12.6916	0.318574	0.227021
12.836	12.692	0.317725	0.229974
12.8364	12.6925	0.317688	0.231272
12.8369	12.693	0.319951	0.236796
12.8374	12.6934	0.319002	0.242584
12.8379	12.6939	0.318827	0.246111
12.8383	12.6944	0.317414	0.251289
12.8388	12.6949	0.320649	0.254459
12.8393	12.6953	0.317724	0.25512
12.8397	12.6958	0.31669	0.255953
12.8402	12.6963	0.317493	0.259802
12.8407	12.6968	0.316942	0.259163
12.8412	12.6972	0.31577	0.255408
12.8416	12.6977	0.317405	0.254809
12.8421	12.6982	0.318241	0.254195
12.8426	12.6986	0.315468	0.25097
12.8431	12.6991	0.317143	0.248025
12.8435	12.6996	0.318779	0.244229
12.844	12.7	0.318707	0.240872
12.8445	12.7005	0.316108	0.236924
12.8449	12.701	0.317145	0.234765
12.8454	12.7015	0.316679	0.230888
12.8459	12.7019	0.315431	0.225433
12.8464	12.7024	0.316528	0.224689
12.8468	12.7029	0.316976	0.224139
12.8473	12.7033	0.315872	0.223441
12.8478	12.7038	0.316129	0.225272
12.8482	12.7043	0.319037	0.22677
12.8487	12.7048	0.318536	0.231522
12.8492	12.7052	0.318109	0.237231
12.8497	12.7057	0.319321	0.24653
12.8501	12.7062	0.319009	0.255532
12.8506	12.7067	0.317507	0.260299
12.8511	12.7072	0.320838	0.273065
12.8516	12.7076	0.321613	0.285969
12.852	12.7081	0.31827	0.296189
12.8525	12.7086	0.317422	0.308963
12.853	12.7091	0.319683	0.322523
12.8534	12.7095	0.322552	0.334877
12.8539	12.71	0.318118	0.3476
12.8544	12.7105	0.319215	0.364885
12.8549	12.7109	0.31945	0.376621
12.8553	12.7114	0.318103	0.386301
12.8558	12.7119	0.320371	0.399495
12.8563	12.7124	0.321319	0.413055
12.8567	12.7128	0.318276	0.422213
12.8572	12.7133	0.319569	0.431618
12.8577	12.7138	0.319884	0.437401
12.8582	12.7142	0.322249	0.445496
12.8586	12.7147	0.319585	0.454407
12.8591	12.7152	0.319331	0.465425
12.8596	12.7157	0.317771	0.469198
12.8601	12.7161	0.317562	0.475659
12.8605	12.7166	0.320541	0.489179
12.861	12.7171	0.319086	0.496628
12.8615	12.7176	0.316642	0.501276
12.8619	12.718	0.318272	0.50903
12.8624	12.7185	0.318677	0.509221
12.8629	12.719	0.32003	0.505987
12.8634	12.7194	0.317931	0.502283
12.8638	12.7199	0.319618	0.501376
12.8643	12.7204	0.317592	0.495109
12.8648	12.7208	0.31771	0.48961
12.8652	12.7213	0.319506	0.493345
12.8657	12.7218	0.319298	0.501863
12.8662	12.7222	0.316799	0.514249
12.8667	12.7227	0.316503	0.534024
12.8671	12.7232	0.316691	0.563872
12.8676	12.7236	0.316195	0.605841
12.8681	12.7241	0.316156	0.659293
12.8686	12.7246	0.314576	0.709041
12.869	12.7251	0.312961	0.751998
12.8695	12.7255	0.312686	0.791938
12.87	12.726	0.31804	0.834557
12.8704	12.7265	0.316427	0.86231
12.8709	12.727	0.315997	0.881862
12.8714	12.7274	0.316401	0.893801
12.8719	12.7279	0.317582	0.907973
12.8723	12.7284	0.317279	0.910217
12.8728	12.7289	0.317178	0.919875
12.8733	12.7293	0.317761	0.93127
12.8737	12.7298	0.316681	0.930561
12.8742	12.7303	0.315574	0.928166
12.8747	12.7307	0.318191	0.936971
12.8752	12.7312	0.318846	0.943968
12.8756	12.7317	0.318619	0.944856
12.8761	12.7322	0.317204	0.946089
12.8766	12.7326	0.317455	0.949093
12.8771	12.7331	0.319242	0.952602
12.8775	12.7336	0.318533	0.954725
12.878	12.734	0.319311	0.958418
12.8785	12.7345	0.318841	0.959996
12.8789	12.735	0.316519	0.952448
12.8794	12.7355	0.320333	0.959281
12.8799	12.736	0.318609	0.962206
12.8804	12.7364	0.317976	0.961794
12.8808	12.7369	0.317765	0.962629
12.8813	12.7374	0.318703	0.963372
12.8818	12.7379	0.319778	0.960636
12.8822	12.7384	0.318838	0.96101
12.8827	12.7388	0.320024	0.970822
12.8832	12.7393	0.321176	0.970294
12.8837	12.7397	0.318422	0.96262
12.8841	12.7402	0.321103	0.967918
12.8846	12.7407	0.321642	0.971198
12.8851	12.7412	0.321084	0.973588
12.8856	12.7417	0.319148	0.970556
12.886	12.7421	0.321405	0.971854
12.8865	12.7426	0.321057	0.970597
12.887	12.743	0.319693	0.972273
12.8874	12.7435	0.321607	0.97864
12.8879	12.744	0.32117	0.973529
12.8884	12.7445	0.3192	0.969452
12.8889	12.7449	0.321093	0.974929
12.8893	12.7454	0.321574	0.975187
12.8898	12.7459	0.319772	0.977543
12.8903	12.7464	0.322243	0.976978
12.8907	12.7468	0.322072	0.977719
12.8912	12.7473	0.321403	0.976533
12.8917	12.7478	0.320485	0.979355
12.8922	12.7483	0.322003	0.985261
12.8926	12.7487	0.322091	0.981771
12.8931	12.7492	0.320831	0.974856
12.8936	12.7497	0.322214	0.982095
12.8941	12.7501	0.320635	0.976691
12.8945	12.7506	0.319409	0.977927
12.895	12.7511	0.321108	0.980018
12.8955	12.7515	0.320703	0.980352
12.8959	12.752	0.320485	0.974957
12.8964	12.7525	0.320245	0.978997
12.8969	12.7529	0.322206	0.98239
12.8974	12.7534	0.321037	0.98062
12.8978	12.7539	0.319892	0.977246
12.8983	12.7543	0.322666	0.982266
12.8988	12.7548	0.321518	0.981229
