# 1304     AichiSR QXAFS
# Start     : 8.9544
# End       : 9.0544
# Dir       : Forward
# Points    : 300
# ScanTime  : 1.01549
# Date      : 13.04.23 22:30
# Ring Cur. : 25.7[mA]
12.7557	12.7558	0.400706	1.21924
12.7562	12.7553	0.399881	1.21779
12.7566	12.7548	0.399135	1.21775
12.7571	12.7543	0.40073	1.21783
12.7576	12.7539	0.401074	1.21933
12.7581	12.7534	0.397294	1.21822
12.7585	12.7529	0.398773	1.21992
12.759	12.7525	0.399846	1.21532
12.7595	12.752	0.401493	1.21715
12.7599	12.7515	0.399529	1.21776
12.7604	12.7511	0.398542	1.21825
12.7609	12.7506	0.397968	1.21207
12.7614	12.7501	0.397717	1.20948
12.7618	12.7497	0.400389	1.21195
12.7623	12.7492	0.398299	1.21247
12.7628	12.7487	0.396584	1.21201
12.7632	12.7483	0.396404	1.21275
12.7637	12.7478	0.398995	1.21182
12.7642	12.7473	0.399835	1.21035
12.7647	12.7468	0.397699	1.21123
12.7651	12.7464	0.398219	1.21317
12.7656	12.7459	0.397059	1.20785
12.7661	12.7454	0.397524	1.20874
12.7666	12.7449	0.402404	1.22131
12.767	12.7445	0.401384	1.21877
12.7675	12.744	0.396124	1.20768
12.768	12.7435	0.397826	1.20682
12.7684	12.7431	0.397087	1.20418
12.7689	12.7426	0.397198	1.20405
12.7694	12.7421	0.39684	1.20503
12.7699	12.7417	0.396675	1.20534
12.7703	12.7412	0.397848	1.20166
12.7708	12.7407	0.39703	1.20311
12.7713	12.7402	0.397109	1.19988
12.7717	12.7398	0.395968	1.20257
12.7722	12.7393	0.394883	1.20112
12.7727	12.7388	0.395943	1.20045
12.7732	12.7384	0.397411	1.19672
12.7736	12.7379	0.396161	1.19745
12.7741	12.7374	0.398326	1.19819
12.7746	12.7369	0.396256	1.1953
12.7751	12.7365	0.39552	1.19457
12.7755	12.736	0.396867	1.19331
12.776	12.7355	0.397184	1.1932
12.7765	12.735	0.397594	1.1925
12.7769	12.7345	0.395509	1.19595
12.7774	12.7341	0.395856	1.18824
12.7779	12.7336	0.397145	1.18784
12.7784	12.7331	0.39794	1.18779
12.7788	12.7326	0.397225	1.18712
12.7793	12.7322	0.395853	1.18431
12.7798	12.7317	0.396238	1.17844
12.7802	12.7312	0.396322	1.17423
12.7807	12.7308	0.396364	1.1733
12.7812	12.7303	0.397924	1.17285
12.7817	12.7298	0.394835	1.1687
12.7821	12.7293	0.395986	1.16255
12.7826	12.7289	0.396956	1.15858
12.7831	12.7284	0.397136	1.15338
12.7836	12.7279	0.395641	1.14774
12.784	12.7275	0.397356	1.13878
12.7845	12.727	0.395125	1.12386
12.785	12.7265	0.3957	1.10778
12.7854	12.726	0.394664	1.08646
12.7859	12.7256	0.392236	1.05728
12.7864	12.7251	0.390954	1.01988
12.7869	12.7246	0.391152	0.972612
12.7873	12.7241	0.392281	0.918103
12.7878	12.7237	0.395052	0.852399
12.7883	12.7232	0.396359	0.792826
12.7887	12.7227	0.396891	0.739784
12.7892	12.7223	0.3971	0.689847
12.7897	12.7218	0.398214	0.65345
12.7902	12.7213	0.398784	0.63502
12.7906	12.7209	0.399381	0.621634
12.7911	12.7204	0.396108	0.613637
12.7916	12.7199	0.397119	0.613636
12.7921	12.7195	0.399315	0.61609
12.7925	12.719	0.396613	0.621059
12.793	12.7185	0.397777	0.628312
12.7935	12.7181	0.398023	0.631768
12.7939	12.7176	0.396653	0.631805
12.7944	12.7171	0.398712	0.629499
12.7949	12.7166	0.39713	0.621318
12.7954	12.7162	0.397621	0.613833
12.7958	12.7157	0.397744	0.602573
12.7963	12.7152	0.397718	0.591577
12.7968	12.7147	0.398845	0.579057
12.7972	12.7142	0.397579	0.571187
12.7977	12.7138	0.398721	0.56069
12.7982	12.7133	0.398107	0.55195
12.7987	12.7128	0.397525	0.538939
12.7991	12.7124	0.398871	0.52812
12.7996	12.7119	0.399972	0.517658
12.8001	12.7114	0.398966	0.504287
12.8006	12.711	0.395837	0.489696
12.801	12.7105	0.398862	0.475456
12.8015	12.71	0.400649	0.459894
12.802	12.7095	0.397829	0.442635
12.8024	12.7091	0.398475	0.428082
12.8029	12.7086	0.397964	0.412423
12.8034	12.7081	0.398191	0.392
12.8039	12.7077	0.400226	0.377855
12.8043	12.7072	0.397881	0.363098
12.8048	12.7067	0.3983	0.347566
12.8053	12.7062	0.397385	0.335169
12.8057	12.7057	0.398969	0.320631
12.8062	12.7053	0.398201	0.309252
12.8067	12.7048	0.398392	0.301072
12.8072	12.7043	0.40051	0.29493
12.8076	12.7038	0.397584	0.288379
12.8081	12.7033	0.398475	0.281764
12.8086	12.7029	0.400721	0.279509
12.8091	12.7024	0.399995	0.281403
12.8095	12.702	0.399531	0.281313
12.81	12.7015	0.398138	0.283185
12.8105	12.701	0.397986	0.286043
12.8109	12.7005	0.399998	0.288984
12.8114	12.7	0.398801	0.294239
12.8119	12.6996	0.3985	0.299998
12.8124	12.6991	0.397892	0.303168
12.8128	12.6987	0.398586	0.305493
12.8133	12.6982	0.400836	0.310685
12.8138	12.6977	0.400661	0.31611
12.8142	12.6973	0.399795	0.32007
12.8147	12.6968	0.397572	0.321534
12.8152	12.6963	0.398899	0.322199
12.8157	12.6958	0.400109	0.323121
12.8161	12.6954	0.398311	0.32364
12.8166	12.6949	0.399986	0.323304
12.8171	12.6944	0.397623	0.318855
12.8176	12.6939	0.397375	0.314037
12.818	12.6934	0.399352	0.310678
12.8185	12.693	0.400308	0.306845
12.819	12.6925	0.397475	0.301348
12.8194	12.6921	0.397246	0.293709
12.8199	12.6916	0.397353	0.287782
12.8204	12.6911	0.399833	0.283252
12.8209	12.6906	0.397525	0.280453
12.8213	12.6902	0.397086	0.278924
12.8218	12.6897	0.397292	0.27459
12.8223	12.6892	0.3963	0.272649
12.8227	12.6888	0.400033	0.273522
12.8232	12.6883	0.398638	0.276514
12.8237	12.6879	0.397002	0.279531
12.8242	12.6874	0.396108	0.281433
12.8246	12.6869	0.394327	0.283885
12.8251	12.6864	0.397641	0.289025
12.8256	12.6859	0.397316	0.294258
12.8261	12.6855	0.395471	0.298869
12.8265	12.685	0.395208	0.301452
12.827	12.6845	0.394597	0.304147
12.8275	12.684	0.397849	0.307214
12.8279	12.6835	0.395224	0.312422
12.8284	12.6831	0.394229	0.315731
12.8289	12.6826	0.394916	0.318219
12.8294	12.6821	0.395111	0.319108
12.8298	12.6817	0.396752	0.323395
12.8303	12.6812	0.395344	0.328113
12.8308	12.6807	0.397129	0.33031
12.8312	12.6802	0.395928	0.332669
12.8317	12.6798	0.396199	0.334156
12.8322	12.6793	0.398204	0.337479
12.8327	12.6789	0.39739	0.341229
12.8331	12.6784	0.395878	0.342255
12.8336	12.6779	0.394906	0.341986
12.8341	12.6774	0.395531	0.342405
12.8346	12.677	0.397951	0.342508
12.835	12.6765	0.396571	0.343574
12.8355	12.676	0.398294	0.343891
12.836	12.6755	0.398176	0.342575
12.8364	12.675	0.396304	0.338448
12.8369	12.6745	0.398062	0.339535
12.8374	12.6741	0.398145	0.339652
12.8379	12.6736	0.397185	0.339859
12.8383	12.6731	0.397013	0.336863
12.8388	12.6727	0.395942	0.334081
12.8393	12.6722	0.398575	0.334061
12.8397	12.6717	0.396757	0.33296
12.8402	12.6713	0.39626	0.331221
12.8407	12.6708	0.396153	0.329292
12.8412	12.6703	0.395723	0.325402
12.8416	12.6698	0.397348	0.322232
12.8421	12.6694	0.39644	0.322302
12.8426	12.6689	0.396907	0.322126
12.8431	12.6685	0.39388	0.316533
12.8435	12.668	0.394763	0.311078
12.844	12.6675	0.397438	0.31063
12.8445	12.667	0.395101	0.309295
12.8449	12.6666	0.395157	0.305966
12.8454	12.6661	0.394034	0.303991
12.8459	12.6656	0.395211	0.301093
12.8464	12.6651	0.395584	0.29817
12.8468	12.6647	0.396281	0.29761
12.8473	12.6642	0.39387	0.296088
12.8478	12.6637	0.394524	0.292179
12.8482	12.6632	0.394819	0.288979
12.8487	12.6628	0.396737	0.287412
12.8492	12.6623	0.395633	0.286137
12.8497	12.6619	0.394195	0.284582
12.8501	12.6614	0.392409	0.282358
12.8506	12.6609	0.39392	0.278892
12.8511	12.6604	0.394719	0.278013
12.8516	12.66	0.395407	0.278382
12.852	12.6595	0.39387	0.275591
12.8525	12.659	0.392874	0.273231
12.853	12.6586	0.394102	0.271624
12.8534	12.6581	0.395269	0.270875
12.8539	12.6576	0.393066	0.27119
12.8544	12.6572	0.39222	0.270449
12.8549	12.6567	0.394004	0.269712
12.8553	12.6562	0.393159	0.269122
12.8558	12.6557	0.39322	0.270939
12.8563	12.6552	0.393364	0.274513
12.8567	12.6548	0.392958	0.275979
12.8572	12.6543	0.392849	0.276293
12.8577	12.6538	0.393385	0.276921
12.8582	12.6533	0.39414	0.277842
12.8586	12.6529	0.39377	0.282968
12.8591	12.6524	0.393533	0.286226
12.8596	12.6519	0.394368	0.285471
12.8601	12.6515	0.393039	0.287495
12.8605	12.651	0.395388	0.289708
12.861	12.6505	0.395106	0.295389
12.8615	12.65	0.392488	0.296891
12.8619	12.6496	0.392996	0.297586
12.8624	12.6491	0.39253	0.300226
12.8629	12.6486	0.393779	0.30251
12.8634	12.6482	0.392139	0.305709
12.8638	12.6477	0.39086	0.307929
12.8643	12.6472	0.390881	0.308265
12.8648	12.6467	0.390775	0.308311
12.8652	12.6462	0.390078	0.307993
12.8657	12.6458	0.390031	0.311796
12.8662	12.6453	0.388921	0.312982
12.8667	12.6448	0.388414	0.311591
12.8671	12.6443	0.388442	0.312442
12.8676	12.6439	0.388936	0.315171
12.8681	12.6434	0.391058	0.316929
12.8686	12.6429	0.390266	0.320018
12.869	12.6425	0.390982	0.31786
12.8695	12.642	0.390725	0.31628
12.87	12.6415	0.39176	0.318017
12.8704	12.6411	0.393037	0.320833
12.8709	12.6406	0.390518	0.319208
12.8714	12.6401	0.389012	0.317839
12.8719	12.6396	0.392356	0.31776
12.8723	12.6392	0.391539	0.317607
12.8728	12.6387	0.393203	0.318564
12.8733	12.6383	0.390332	0.317743
12.8737	12.6378	0.390323	0.315578
12.8742	12.6373	0.389938	0.313538
12.8747	12.6368	0.390228	0.315062
12.8752	12.6364	0.392337	0.315925
12.8756	12.6359	0.388662	0.313378
12.8761	12.6354	0.389468	0.311307
12.8766	12.6349	0.389086	0.308893
12.8771	12.6345	0.389247	0.311163
12.8775	12.634	0.39108	0.312105
12.878	12.6335	0.388686	0.311229
12.8785	12.633	0.389709	0.309259
12.8789	12.6326	0.388417	0.308447
12.8794	12.6321	0.390709	0.310157
12.8799	12.6317	0.391604	0.311557
12.8804	12.6312	0.388626	0.311205
12.8808	12.6307	0.387599	0.309851
12.8813	12.6302	0.38821	0.309939
12.8818	12.6297	0.388204	0.309952
12.8822	12.6293	0.389285	0.310669
12.8827	12.6288	0.387669	0.311092
12.8832	12.6284	0.387017	0.309953
12.8837	12.6279	0.38828	0.309551
12.8841	12.6274	0.387988	0.308566
12.8846	12.6269	0.390763	0.31189
12.8851	12.6264	0.386199	0.310971
12.8856	12.626	0.386487	0.308807
12.886	12.6255	0.387321	0.307773
12.8865	12.625	0.389637	0.308081
12.887	12.6245	0.387711	0.306753
12.8874	12.6241	0.386416	0.307193
12.8879	12.6236	0.387505	0.304336
12.8884	12.6231	0.388045	0.3028
12.8889	12.6226	0.388063	0.302982
12.8893	12.6222	0.387522	0.305175
12.8898	12.6217	0.385417	0.302976
12.8903	12.6212	0.386798	0.301002
12.8907	12.6207	0.387824	0.299413
12.8912	12.6203	0.386434	0.299512
12.8917	12.6198	0.385077	0.302106
12.8922	12.6193	0.385736	0.299839
12.8926	12.6189	0.385421	0.298981
12.8931	12.6184	0.385221	0.297937
12.8936	12.6179	0.385831	0.299535
12.8941	12.6175	0.386351	0.301075
12.8945	12.617	0.384104	0.299985
12.895	12.6165	0.38444	0.297447
12.8955	12.616	0.384681	0.29721
12.8959	12.6155	0.385552	0.297547
12.8964	12.6151	0.383221	0.299728
12.8969	12.6146	0.383802	0.300147
12.8974	12.6141	0.382898	0.294755
12.8978	12.6136	0.383732	0.295637
12.8983	12.6132	0.383773	0.295422
12.8988	12.6127	0.385205	0.297416
