# 1304     AichiSR QXAFS
# Start     : 8.9544
# End       : 9.0544
# Dir       : Backward
# Points    : 300
# ScanTime  : 1.01549
# Date      : 13.04.23 22:22
# Ring Cur. : 25.5[mA]
12.7557	12.6117	0.303861	0.231672
12.7562	12.6122	0.303219	0.232212
12.7566	12.6127	0.304679	0.234353
12.7571	12.6131	0.303952	0.233339
12.7576	12.6136	0.305881	0.234208
12.7581	12.6141	0.303855	0.236023
12.7585	12.6145	0.306471	0.238933
12.759	12.615	0.305719	0.238597
12.7595	12.6155	0.305758	0.237873
12.7599	12.616	0.309257	0.239414
12.7604	12.6164	0.306684	0.23933
12.7609	12.6169	0.307065	0.240256
12.7614	12.6174	0.306691	0.241436
12.7618	12.6179	0.308684	0.240749
12.7623	12.6183	0.306417	0.238581
12.7628	12.6188	0.306995	0.237824
12.7632	12.6193	0.307602	0.241045
12.7637	12.6197	0.30773	0.24094
12.7642	12.6202	0.307417	0.237847
12.7647	12.6207	0.310539	0.240434
12.7651	12.6212	0.307486	0.240458
12.7656	12.6217	0.306798	0.240746
12.7661	12.6221	0.3101	0.243925
12.7666	12.6226	0.308262	0.24121
12.767	12.623	0.31124	0.243077
12.7675	12.6235	0.308254	0.24256
12.768	12.624	0.309424	0.246155
12.7684	12.6245	0.307666	0.245444
12.7689	12.6249	0.308174	0.244074
12.7694	12.6254	0.310982	0.245864
12.7699	12.6259	0.309311	0.246126
12.7703	12.6264	0.308171	0.246985
12.7708	12.6269	0.30914	0.248632
12.7713	12.6273	0.31018	0.247904
12.7717	12.6278	0.310761	0.247458
12.7722	12.6283	0.311346	0.24812
12.7727	12.6288	0.310399	0.250251
12.7732	12.6292	0.310395	0.249864
12.7736	12.6297	0.31196	0.248466
12.7741	12.6302	0.313417	0.250402
12.7746	12.6306	0.311885	0.249515
12.7751	12.6311	0.310479	0.247914
12.7755	12.6316	0.311545	0.249673
12.776	12.6321	0.310868	0.248227
12.7765	12.6325	0.312672	0.249184
12.7769	12.633	0.311679	0.248459
12.7774	12.6334	0.31072	0.248002
12.7779	12.6339	0.311328	0.249773
12.7784	12.6344	0.310683	0.248782
12.7788	12.6349	0.314659	0.250469
12.7793	12.6353	0.311472	0.249924
12.7798	12.6358	0.311227	0.251184
12.7802	12.6363	0.313248	0.253071
12.7807	12.6368	0.314712	0.253014
12.7812	12.6372	0.314195	0.252215
12.7817	12.6377	0.313521	0.254045
12.7821	12.6382	0.314231	0.255781
12.7826	12.6387	0.312211	0.254571
12.7831	12.6391	0.311983	0.253483
12.7836	12.6396	0.316618	0.256002
12.784	12.64	0.313698	0.255884
12.7845	12.6405	0.312543	0.254502
12.785	12.641	0.31405	0.257883
12.7854	12.6415	0.314193	0.257519
12.7859	12.6419	0.314821	0.255422
12.7864	12.6424	0.315788	0.258001
12.7869	12.6429	0.314012	0.258229
12.7873	12.6433	0.310701	0.254743
12.7878	12.6438	0.314053	0.255736
12.7883	12.6443	0.316036	0.255066
12.7887	12.6447	0.313757	0.254622
12.7892	12.6452	0.311551	0.252247
12.7897	12.6457	0.312606	0.253067
12.7902	12.6462	0.314407	0.250693
12.7906	12.6467	0.314521	0.24934
12.7911	12.6471	0.313548	0.249182
12.7916	12.6476	0.315187	0.249772
12.7921	12.6481	0.314972	0.24802
12.7925	12.6486	0.314119	0.245393
12.793	12.649	0.317964	0.245133
12.7935	12.6495	0.318496	0.244648
12.7939	12.65	0.31524	0.243059
12.7944	12.6504	0.316351	0.240215
12.7949	12.6509	0.317561	0.237984
12.7954	12.6514	0.320134	0.236213
12.7958	12.6519	0.316992	0.23481
12.7963	12.6523	0.317033	0.233794
12.7968	12.6528	0.317759	0.231966
12.7972	12.6533	0.317159	0.229103
12.7977	12.6537	0.320848	0.227114
12.7982	12.6542	0.318363	0.226137
12.7987	12.6547	0.317236	0.224854
12.7991	12.6552	0.317606	0.224162
12.7996	12.6557	0.318476	0.221738
12.8001	12.6561	0.318393	0.220432
12.8006	12.6566	0.319221	0.221073
12.801	12.6571	0.31865	0.222153
12.8015	12.6576	0.319065	0.219527
12.802	12.658	0.319343	0.218917
12.8024	12.6585	0.321918	0.221476
12.8029	12.659	0.320506	0.222712
12.8034	12.6594	0.317098	0.221489
12.8039	12.6599	0.318464	0.222339
12.8043	12.6604	0.318837	0.222933
12.8048	12.6608	0.319189	0.225168
12.8053	12.6613	0.319818	0.227583
12.8057	12.6618	0.318096	0.228292
12.8062	12.6623	0.319327	0.229325
12.8067	12.6627	0.320081	0.229859
12.8072	12.6632	0.323131	0.232716
12.8076	12.6636	0.320079	0.235349
12.8081	12.6641	0.320447	0.237136
12.8086	12.6646	0.319916	0.238477
12.8091	12.6651	0.320874	0.239674
12.8095	12.6656	0.321311	0.241754
12.81	12.666	0.322181	0.24479
12.8105	12.6665	0.322059	0.247024
12.8109	12.667	0.31937	0.248111
12.8114	12.6675	0.320087	0.248039
12.8119	12.6679	0.324001	0.251866
12.8124	12.6684	0.321252	0.254493
12.8128	12.6689	0.318247	0.255852
12.8133	12.6693	0.320669	0.256977
12.8138	12.6698	0.322119	0.260009
12.8142	12.6702	0.322738	0.26223
12.8147	12.6707	0.322286	0.264099
12.8152	12.6712	0.32088	0.26718
12.8157	12.6717	0.320942	0.268066
12.8161	12.6721	0.32214	0.269321
12.8166	12.6726	0.32334	0.270348
12.8171	12.6731	0.320449	0.272974
12.8176	12.6735	0.321169	0.272571
12.818	12.674	0.321056	0.273679
12.8185	12.6745	0.321468	0.275298
12.819	12.675	0.322023	0.274677
12.8194	12.6755	0.321849	0.277094
12.8199	12.6759	0.32148	0.279022
12.8204	12.6764	0.322502	0.276881
12.8209	12.6769	0.320468	0.27622
12.8213	12.6774	0.326696	0.279271
12.8218	12.6779	0.323289	0.280005
12.8223	12.6783	0.321139	0.27945
12.8227	12.6788	0.321861	0.278468
12.8232	12.6793	0.323655	0.277745
12.8237	12.6797	0.325696	0.276976
12.8242	12.6802	0.322643	0.274015
12.8246	12.6807	0.322596	0.272973
12.8251	12.6811	0.320139	0.267896
12.8256	12.6816	0.319885	0.264952
12.8261	12.6821	0.323308	0.264783
12.8265	12.6826	0.323034	0.263319
12.827	12.683	0.319902	0.260362
12.8275	12.6835	0.319725	0.258064
12.8279	12.684	0.32177	0.253913
12.8284	12.6844	0.323557	0.252859
12.8289	12.6849	0.325283	0.252213
12.8294	12.6854	0.321044	0.249864
12.8298	12.6859	0.322561	0.243801
12.8303	12.6864	0.323113	0.239976
12.8308	12.6868	0.325297	0.23918
12.8312	12.6873	0.32471	0.23625
12.8317	12.6878	0.321479	0.231258
12.8322	12.6883	0.321937	0.227034
12.8327	12.6887	0.323362	0.225419
12.8331	12.6892	0.324654	0.223982
12.8336	12.6896	0.323569	0.224059
12.8341	12.6901	0.323959	0.224818
12.8346	12.6906	0.320765	0.223007
12.835	12.6911	0.323906	0.225032
12.8355	12.6915	0.328422	0.23214
12.836	12.692	0.326	0.234543
12.8364	12.6925	0.324215	0.239256
12.8369	12.6929	0.325485	0.242027
12.8374	12.6934	0.323167	0.246066
12.8379	12.6939	0.323329	0.251406
12.8383	12.6943	0.326348	0.258152
12.8388	12.6948	0.323259	0.259129
12.8393	12.6953	0.320922	0.258281
12.8397	12.6958	0.322827	0.261032
12.8402	12.6962	0.324941	0.262656
12.8407	12.6967	0.323108	0.2635
12.8412	12.6972	0.322813	0.263485
12.8416	12.6977	0.322501	0.260543
12.8421	12.6981	0.324107	0.257283
12.8426	12.6986	0.326226	0.255397
12.8431	12.6991	0.324771	0.253311
12.8435	12.6995	0.323056	0.251022
12.844	12.7	0.322655	0.245198
12.8445	12.7005	0.32215	0.2404
12.8449	12.7009	0.324948	0.237825
12.8454	12.7014	0.324254	0.235824
12.8459	12.7019	0.320548	0.230944
12.8464	12.7024	0.321507	0.227736
12.8468	12.7028	0.322137	0.226625
12.8473	12.7033	0.323732	0.227983
12.8478	12.7038	0.323286	0.229924
12.8482	12.7042	0.322858	0.233882
12.8487	12.7047	0.325264	0.236457
12.8492	12.7052	0.325091	0.241724
12.8497	12.7057	0.327683	0.251422
12.8501	12.7062	0.32692	0.261379
12.8506	12.7066	0.325112	0.268443
12.8511	12.7071	0.324488	0.275861
12.8516	12.7076	0.32549	0.290614
12.852	12.7081	0.326045	0.302723
12.8525	12.7086	0.325358	0.315071
12.853	12.709	0.323359	0.329116
12.8534	12.7095	0.324469	0.339258
12.8539	12.7099	0.32517	0.35384
12.8544	12.7104	0.325859	0.368934
12.8549	12.7109	0.326462	0.385086
12.8553	12.7114	0.32435	0.396262
12.8558	12.7118	0.32476	0.405789
12.8563	12.7123	0.325373	0.417392
12.8567	12.7128	0.326573	0.429595
12.8572	12.7132	0.327609	0.439143
12.8577	12.7137	0.326109	0.449513
12.8582	12.7142	0.324359	0.45325
12.8586	12.7147	0.325677	0.459765
12.8591	12.7151	0.326935	0.472567
12.8596	12.7156	0.327014	0.481802
12.8601	12.7161	0.323206	0.48722
12.8605	12.7166	0.324334	0.494001
12.861	12.717	0.325184	0.503247
12.8615	12.7175	0.325667	0.511125
12.8619	12.718	0.325395	0.516162
12.8624	12.7185	0.323963	0.517655
12.8629	12.7189	0.322467	0.51199
12.8634	12.7194	0.324698	0.509094
12.8638	12.7198	0.325232	0.507569
12.8643	12.7203	0.32463	0.504936
12.8648	12.7208	0.322697	0.504029
12.8652	12.7213	0.322581	0.502888
12.8657	12.7217	0.322937	0.509587
12.8662	12.7222	0.322836	0.520425
12.8667	12.7227	0.322901	0.546019
12.8671	12.7231	0.322054	0.579649
12.8676	12.7236	0.318315	0.611448
12.8681	12.7241	0.319761	0.664455
12.8686	12.7245	0.320335	0.722995
12.869	12.725	0.320618	0.772316
12.8695	12.7255	0.317347	0.810117
12.87	12.726	0.319248	0.842478
12.8704	12.7264	0.320708	0.873236
12.8709	12.7269	0.322513	0.895579
12.8714	12.7274	0.322288	0.908756
12.8719	12.7279	0.322198	0.921221
12.8723	12.7283	0.320192	0.921803
12.8728	12.7288	0.322642	0.931435
12.8733	12.7293	0.323069	0.94152
12.8737	12.7297	0.322252	0.946741
12.8742	12.7302	0.321896	0.949365
12.8747	12.7307	0.322212	0.949487
12.8752	12.7312	0.323734	0.954213
12.8756	12.7317	0.323342	0.955513
12.8761	12.7321	0.3237	0.964226
12.8766	12.7326	0.322907	0.968776
12.8771	12.7331	0.322094	0.961671
12.8775	12.7335	0.324334	0.968197
12.878	12.734	0.327964	0.984059
12.8785	12.7345	0.327358	0.980136
12.8789	12.735	0.322334	0.971456
12.8794	12.7354	0.32349	0.968766
12.8799	12.7359	0.325472	0.975223
12.8804	12.7364	0.324112	0.976375
12.8808	12.7369	0.324034	0.977533
12.8813	12.7374	0.325303	0.981626
12.8818	12.7378	0.323048	0.97677
12.8822	12.7383	0.324152	0.975046
12.8827	12.7388	0.326066	0.984128
12.8832	12.7392	0.326251	0.986962
12.8837	12.7397	0.324358	0.981754
12.8841	12.7402	0.324786	0.982126
12.8846	12.7406	0.327749	0.986169
12.8851	12.7411	0.326339	0.984771
12.8856	12.7416	0.326557	0.991492
12.886	12.7421	0.325473	0.992329
12.8865	12.7425	0.322596	0.982034
12.887	12.743	0.325623	0.986816
12.8874	12.7435	0.32771	0.993503
12.8879	12.7439	0.327675	0.994301
12.8884	12.7444	0.324667	0.992172
12.8889	12.7449	0.325982	0.989707
12.8893	12.7454	0.32846	0.990718
12.8898	12.7458	0.327543	0.995545
12.8903	12.7463	0.330406	1.00584
12.8907	12.7468	0.328279	1.00115
12.8912	12.7473	0.326416	0.993191
12.8917	12.7478	0.329834	0.998205
12.8922	12.7482	0.329964	1.00542
12.8926	12.7487	0.329702	1.00514
12.8931	12.7491	0.329361	1.00382
12.8936	12.7496	0.329114	1.0053
12.8941	12.7501	0.329868	1.00268
12.8945	12.7505	0.328979	1.00135
12.895	12.751	0.329884	1.00944
12.8955	12.7515	0.32929	1.00563
12.8959	12.752	0.328212	0.99931
12.8964	12.7524	0.329105	1.00051
12.8969	12.7529	0.330872	1.00644
12.8974	12.7533	0.329481	1.01011
12.8978	12.7538	0.328803	1.00885
12.8983	12.7543	0.330054	1.00697
12.8988	12.7548	0.332966	1.01312
