# 1304     AichiSR QXAFS
# Start     : 8.9544
# End       : 9.0544
# Dir       : Backward
# Points    : 300
# ScanTime  : 1.01549
# Date      : 13.04.23 22:31
# Ring Cur. : 25.6[mA]
12.7557	12.6118	0.306613	0.233165
12.7562	12.6123	0.306378	0.232993
12.7566	12.6127	0.30657	0.235359
12.7571	12.6132	0.306349	0.236786
12.7576	12.6137	0.30598	0.236614
12.7581	12.6141	0.307693	0.236642
12.7585	12.6146	0.310077	0.239575
12.759	12.6151	0.307967	0.240704
12.7595	12.6156	0.307015	0.240379
12.7599	12.6161	0.308581	0.240909
12.7604	12.6165	0.306311	0.2386
12.7609	12.617	0.308323	0.237976
12.7614	12.6175	0.308858	0.241222
12.7618	12.618	0.307376	0.239917
12.7623	12.6184	0.306257	0.237773
12.7628	12.6189	0.307528	0.239238
12.7632	12.6194	0.310872	0.242808
12.7637	12.6198	0.309815	0.242585
12.7642	12.6203	0.306727	0.24125
12.7647	12.6208	0.308119	0.24043
12.7651	12.6213	0.310285	0.241147
12.7656	12.6217	0.309183	0.24037
12.7661	12.6222	0.308389	0.242013
12.7666	12.6227	0.306994	0.242653
12.767	12.6231	0.310346	0.241953
12.7675	12.6236	0.309005	0.242064
12.768	12.6241	0.309416	0.243976
12.7684	12.6246	0.307953	0.244245
12.7689	12.625	0.307207	0.244227
12.7694	12.6255	0.307541	0.245164
12.7699	12.626	0.308695	0.244395
12.7703	12.6265	0.308979	0.246015
12.7708	12.627	0.30835	0.246895
12.7713	12.6274	0.309642	0.24892
12.7717	12.6279	0.308188	0.247192
12.7722	12.6284	0.308435	0.246309
12.7727	12.6289	0.311972	0.248506
12.7732	12.6293	0.310424	0.250556
12.7736	12.6298	0.306884	0.248355
12.7741	12.6302	0.309381	0.247015
12.7746	12.6307	0.310769	0.247489
12.7751	12.6312	0.309052	0.247786
12.7755	12.6317	0.308889	0.247935
12.776	12.6321	0.307982	0.24799
12.7765	12.6326	0.309033	0.246006
12.7769	12.6331	0.309544	0.246682
12.7774	12.6335	0.310841	0.250265
12.7779	12.634	0.30993	0.249091
12.7784	12.6345	0.309482	0.248666
12.7788	12.6349	0.311575	0.249478
12.7793	12.6354	0.312626	0.24862
12.7798	12.6359	0.311449	0.24911
12.7802	12.6364	0.311621	0.251124
12.7807	12.6369	0.309493	0.251173
12.7812	12.6373	0.307394	0.247747
12.7817	12.6378	0.311769	0.251086
12.7821	12.6383	0.312211	0.252246
12.7826	12.6387	0.310466	0.253441
12.7831	12.6392	0.309551	0.252798
12.7836	12.6397	0.31069	0.252592
12.784	12.6401	0.312981	0.253075
12.7845	12.6406	0.311282	0.25465
12.785	12.6411	0.311888	0.256983
12.7854	12.6416	0.310847	0.255559
12.7859	12.642	0.310616	0.252983
12.7864	12.6425	0.314963	0.255404
12.7869	12.6429	0.311822	0.253319
12.7873	12.6434	0.310256	0.253312
12.7878	12.6439	0.308679	0.253136
12.7883	12.6443	0.30873	0.25122
12.7887	12.6448	0.310452	0.249738
12.7892	12.6453	0.308024	0.248644
12.7897	12.6458	0.308426	0.24984
12.7902	12.6463	0.309347	0.247917
12.7906	12.6467	0.309331	0.24536
12.7911	12.6472	0.311747	0.245999
12.7916	12.6477	0.312695	0.246883
12.7921	12.6482	0.311789	0.245509
12.7925	12.6487	0.310021	0.243732
12.793	12.6491	0.313086	0.240569
12.7935	12.6496	0.31525	0.2411
12.7939	12.6501	0.310581	0.237884
12.7944	12.6505	0.311091	0.236348
12.7949	12.651	0.312071	0.235834
12.7954	12.6515	0.310984	0.231121
12.7958	12.652	0.313269	0.229193
12.7963	12.6524	0.3147	0.22987
12.7968	12.6529	0.313831	0.227753
12.7972	12.6534	0.312579	0.226987
12.7977	12.6538	0.313749	0.222694
12.7982	12.6543	0.315231	0.222416
12.7987	12.6548	0.315125	0.222049
12.7991	12.6553	0.31412	0.22177
12.7996	12.6557	0.314451	0.219897
12.8001	12.6562	0.311694	0.215684
12.8006	12.6567	0.314448	0.215493
12.801	12.6572	0.31463	0.216673
12.8015	12.6577	0.312593	0.216567
12.802	12.6581	0.313287	0.217
12.8024	12.6586	0.312743	0.215533
12.8029	12.6591	0.315274	0.217906
12.8034	12.6595	0.318129	0.221169
12.8039	12.66	0.315161	0.221632
12.8043	12.6605	0.315171	0.2217
12.8048	12.6609	0.31435	0.22136
12.8053	12.6614	0.317275	0.224072
12.8057	12.6619	0.315728	0.226904
12.8062	12.6623	0.31493	0.227535
12.8067	12.6628	0.314054	0.229571
12.8072	12.6633	0.315034	0.22957
12.8076	12.6637	0.317493	0.231368
12.8081	12.6642	0.315509	0.232994
12.8086	12.6647	0.314976	0.235796
12.8091	12.6652	0.314338	0.236975
12.8095	12.6656	0.315042	0.236764
12.81	12.6661	0.317535	0.23906
12.8105	12.6666	0.318159	0.243169
12.8109	12.6671	0.316077	0.244684
12.8114	12.6675	0.315151	0.24584
12.8119	12.668	0.316266	0.248492
12.8124	12.6685	0.318713	0.250369
12.8128	12.6689	0.316777	0.253392
12.8133	12.6694	0.318291	0.257064
12.8138	12.6699	0.317172	0.258401
12.8142	12.6703	0.315622	0.257569
12.8147	12.6708	0.318865	0.261083
12.8152	12.6713	0.318464	0.264371
12.8157	12.6718	0.315168	0.265315
12.8161	12.6722	0.315612	0.265715
12.8166	12.6727	0.319281	0.26731
12.8171	12.6732	0.320825	0.269156
12.8176	12.6736	0.318002	0.269668
12.818	12.6741	0.318657	0.273714
12.8185	12.6746	0.319251	0.272755
12.819	12.6751	0.319291	0.272257
12.8194	12.6755	0.319814	0.273764
12.8199	12.676	0.319668	0.276234
12.8204	12.6765	0.318573	0.277049
12.8209	12.677	0.317774	0.274662
12.8213	12.6775	0.320615	0.27628
12.8218	12.6779	0.319974	0.276696
12.8223	12.6784	0.319288	0.276958
12.8227	12.6789	0.321111	0.278179
12.8232	12.6793	0.320037	0.276318
12.8237	12.6798	0.320829	0.271265
12.8242	12.6803	0.321851	0.271489
12.8246	12.6808	0.322571	0.272195
12.8251	12.6812	0.320378	0.269133
12.8256	12.6817	0.31964	0.26476
12.8261	12.6822	0.321136	0.2633
12.8265	12.6826	0.323421	0.261084
12.827	12.6831	0.320908	0.259731
12.8275	12.6836	0.319266	0.256812
12.8279	12.684	0.320962	0.25458
12.8284	12.6845	0.3214	0.250868
12.8289	12.685	0.323401	0.249664
12.8294	12.6855	0.322709	0.247862
12.8298	12.686	0.321382	0.244833
12.8303	12.6865	0.320404	0.239578
12.8308	12.6869	0.32186	0.236069
12.8312	12.6874	0.324937	0.233222
12.8317	12.6879	0.323471	0.232182
12.8322	12.6883	0.323694	0.229238
12.8327	12.6888	0.32448	0.225725
12.8331	12.6893	0.322819	0.22343
12.8336	12.6897	0.325738	0.222875
12.8341	12.6902	0.327401	0.225034
12.8346	12.6907	0.32308	0.225395
12.835	12.6912	0.32303	0.225857
12.8355	12.6916	0.325024	0.22976
12.836	12.6921	0.326143	0.235301
12.8364	12.6926	0.32423	0.240558
12.8369	12.693	0.32449	0.243807
12.8374	12.6935	0.32348	0.247665
12.8379	12.6939	0.324297	0.251497
12.8383	12.6944	0.328664	0.257821
12.8388	12.6949	0.328032	0.261796
12.8393	12.6954	0.324298	0.263042
12.8397	12.6959	0.323582	0.262014
12.8402	12.6963	0.327785	0.265014
12.8407	12.6968	0.326183	0.264147
12.8412	12.6973	0.325213	0.263998
12.8416	12.6978	0.325468	0.262673
12.8421	12.6982	0.326683	0.259
12.8426	12.6987	0.323366	0.253978
12.8431	12.6991	0.32667	0.253395
12.8435	12.6996	0.327831	0.252369
12.844	12.7001	0.32372	0.246235
12.8445	12.7005	0.324484	0.240402
12.8449	12.701	0.325688	0.237533
12.8454	12.7015	0.325254	0.234485
12.8459	12.702	0.324991	0.23416
12.8464	12.7024	0.326111	0.232974
12.8468	12.7029	0.324963	0.229683
12.8473	12.7034	0.32421	0.228209
12.8478	12.7038	0.328311	0.231666
12.8482	12.7043	0.328935	0.237595
12.8487	12.7048	0.323928	0.238992
12.8492	12.7053	0.324493	0.244549
12.8497	12.7058	0.328236	0.25271
12.8501	12.7063	0.327608	0.260923
12.8506	12.7067	0.326842	0.273464
12.8511	12.7072	0.326799	0.285056
12.8516	12.7077	0.328946	0.294334
12.852	12.7082	0.326663	0.304874
12.8525	12.7086	0.329837	0.32274
12.853	12.7091	0.331094	0.340338
12.8534	12.7096	0.327916	0.350134
12.8539	12.71	0.326951	0.360375
12.8544	12.7105	0.329751	0.376127
12.8549	12.711	0.329551	0.389414
12.8553	12.7115	0.329448	0.402127
12.8558	12.7119	0.326691	0.413745
12.8563	12.7124	0.326954	0.422776
12.8567	12.7129	0.328713	0.432812
12.8572	12.7133	0.328918	0.444268
12.8577	12.7138	0.330313	0.456018
12.8582	12.7143	0.328172	0.461349
12.8586	12.7147	0.328116	0.467155
12.8591	12.7152	0.330418	0.477378
12.8596	12.7157	0.330132	0.486337
12.8601	12.7162	0.331458	0.498121
12.8605	12.7167	0.328261	0.505919
12.861	12.7171	0.326395	0.510693
12.8615	12.7176	0.328256	0.517813
12.8619	12.7181	0.329531	0.522501
12.8624	12.7186	0.329753	0.52533
12.8629	12.719	0.328076	0.523087
12.8634	12.7195	0.328188	0.51483
12.8638	12.7199	0.328221	0.51134
12.8643	12.7204	0.327365	0.506919
12.8648	12.7209	0.328226	0.508536
12.8652	12.7214	0.328592	0.513122
12.8657	12.7218	0.327431	0.515698
12.8662	12.7223	0.327026	0.530608
12.8667	12.7227	0.326987	0.557612
12.8671	12.7232	0.329546	0.596724
12.8676	12.7237	0.324387	0.638017
12.8681	12.7241	0.32474	0.682856
12.8686	12.7246	0.325267	0.74081
12.869	12.7251	0.322205	0.787471
12.8695	12.7256	0.322801	0.827094
12.87	12.7261	0.323499	0.865032
12.8704	12.7265	0.324995	0.886178
12.8709	12.727	0.325309	0.904346
12.8714	12.7275	0.326432	0.920221
12.8719	12.728	0.328001	0.940965
12.8723	12.7284	0.327191	0.9462
12.8728	12.7289	0.326245	0.949353
12.8733	12.7294	0.327236	0.95674
12.8737	12.7298	0.328514	0.960691
12.8742	12.7303	0.326959	0.966437
12.8747	12.7308	0.329124	0.975008
12.8752	12.7313	0.32847	0.969937
12.8756	12.7317	0.328119	0.970577
12.8761	12.7322	0.328338	0.974958
12.8766	12.7327	0.329476	0.982609
12.8771	12.7331	0.327503	0.983339
12.8775	12.7336	0.325417	0.980207
12.878	12.7341	0.328223	0.98307
12.8785	12.7346	0.328851	0.985386
12.8789	12.735	0.327961	0.987836
12.8794	12.7355	0.327906	0.990959
12.8799	12.736	0.328227	0.990266
12.8804	12.7365	0.33088	0.989973
12.8808	12.737	0.32859	0.990051
12.8813	12.7375	0.331165	0.99901
12.8818	12.7379	0.329442	0.998178
12.8822	12.7384	0.328963	0.992756
12.8827	12.7389	0.329866	0.995844
12.8832	12.7393	0.329287	0.99775
12.8837	12.7398	0.329277	0.999223
12.8841	12.7403	0.329311	1.0029
12.8846	12.7407	0.328379	0.995954
12.8851	12.7412	0.329558	0.998031
12.8856	12.7417	0.330666	1.00332
12.886	12.7422	0.331429	1.00536
12.8865	12.7426	0.33033	1.00463
12.887	12.7431	0.330484	1.00193
12.8874	12.7436	0.33269	1.00779
12.8879	12.744	0.33127	1.0061
12.8884	12.7445	0.329942	1.00768
12.8889	12.745	0.33129	1.00851
12.8893	12.7455	0.330848	1.00343
12.8898	12.7459	0.331837	1.00819
12.8903	12.7464	0.330707	1.00665
12.8907	12.7469	0.329793	1.0097
12.8912	12.7474	0.330175	1.01014
12.8917	12.7478	0.329868	1.00588
12.8922	12.7483	0.334804	1.01488
12.8926	12.7488	0.332095	1.01545
12.8931	12.7492	0.331672	1.01044
12.8936	12.7497	0.331397	1.01593
12.8941	12.7502	0.331436	1.01138
12.8945	12.7506	0.333505	1.01321
12.895	12.7511	0.331632	1.01081
12.8955	12.7516	0.333046	1.01437
12.8959	12.752	0.331386	1.00814
12.8964	12.7525	0.32994	1.00734
12.8969	12.753	0.335191	1.01635
12.8974	12.7534	0.331479	1.01176
12.8978	12.7539	0.331332	1.00934
12.8983	12.7544	0.333105	1.01604
12.8988	12.7549	0.332289	1.01306
