# 1304     AichiSR QXAFS
# Start     : 8.9544
# End       : 9.0544
# Dir       : Forward
# Points    : 300
# ScanTime  : 1.01549
# Date      : 13.04.23 22:27
# Ring Cur. : 25.4[mA]
12.7557	12.7557	0.398235	1.21501
12.7562	12.7553	0.398208	1.21531
12.7566	12.7548	0.396795	1.21301
12.7571	12.7543	0.39669	1.20768
12.7576	12.7538	0.398353	1.21289
12.7581	12.7534	0.397016	1.21147
12.7585	12.7529	0.397507	1.21287
12.759	12.7524	0.397047	1.21308
12.7595	12.752	0.397776	1.211
12.7599	12.7515	0.398185	1.21091
12.7604	12.751	0.398258	1.2106
12.7609	12.7506	0.396513	1.21129
12.7614	12.7501	0.396314	1.20838
12.7618	12.7496	0.395746	1.20599
12.7623	12.7492	0.396544	1.20583
12.7628	12.7487	0.397423	1.20849
12.7632	12.7482	0.396686	1.20749
12.7637	12.7478	0.395144	1.2069
12.7642	12.7473	0.394251	1.20167
12.7647	12.7468	0.39795	1.20517
12.7651	12.7463	0.397026	1.20658
12.7656	12.7459	0.394246	1.20365
12.7661	12.7454	0.395657	1.20325
12.7666	12.7449	0.39561	1.19696
12.767	12.7444	0.396361	1.20225
12.7675	12.744	0.395724	1.20294
12.768	12.7435	0.394001	1.20197
12.7684	12.743	0.395246	1.19852
12.7689	12.7426	0.393365	1.19898
12.7694	12.7421	0.395536	1.19667
12.7699	12.7416	0.394482	1.19946
12.7703	12.7412	0.394925	1.19582
12.7708	12.7407	0.393024	1.1956
12.7713	12.7402	0.392872	1.1929
12.7717	12.7397	0.39611	1.1931
12.7722	12.7393	0.393678	1.19138
12.7727	12.7388	0.3933	1.1931
12.7732	12.7383	0.394252	1.19225
12.7736	12.7379	0.392915	1.1906
12.7741	12.7374	0.397535	1.20022
12.7746	12.7369	0.399028	1.20245
12.7751	12.7364	0.393717	1.19172
12.7755	12.7359	0.394289	1.18692
12.776	12.7355	0.394127	1.18347
12.7765	12.735	0.395663	1.18115
12.7769	12.7345	0.394178	1.18034
12.7774	12.734	0.392669	1.18032
12.7779	12.7335	0.39294	1.17689
12.7784	12.7331	0.391564	1.17247
12.7788	12.7326	0.393797	1.17333
12.7793	12.7321	0.394268	1.175
12.7798	12.7317	0.392746	1.17061
12.7802	12.7312	0.392059	1.16623
12.7807	12.7307	0.391656	1.16215
12.7812	12.7302	0.393824	1.1606
12.7817	12.7298	0.392164	1.1559
12.7821	12.7293	0.392033	1.15586
12.7826	12.7288	0.392418	1.14541
12.7831	12.7284	0.389023	1.13729
12.7836	12.7279	0.392715	1.12964
12.784	12.7274	0.392688	1.1251
12.7845	12.727	0.390544	1.11261
12.785	12.7265	0.39041	1.09092
12.7854	12.726	0.389427	1.07278
12.7859	12.7255	0.389736	1.04391
12.7864	12.7251	0.389277	1.00925
12.7869	12.7246	0.387233	0.968221
12.7873	12.7241	0.388294	0.910654
12.7878	12.7236	0.389004	0.844524
12.7883	12.7232	0.391426	0.789865
12.7887	12.7227	0.393802	0.735853
12.7892	12.7222	0.393046	0.688801
12.7897	12.7218	0.392431	0.650985
12.7902	12.7213	0.394049	0.629793
12.7906	12.7208	0.393736	0.6141
12.7911	12.7203	0.392213	0.610673
12.7916	12.7199	0.394212	0.611101
12.7921	12.7194	0.394243	0.611365
12.7925	12.719	0.393938	0.616853
12.793	12.7185	0.393917	0.62031
12.7935	12.718	0.394915	0.627202
12.7939	12.7176	0.392799	0.627697
12.7944	12.7171	0.394819	0.624635
12.7949	12.7166	0.39589	0.616784
12.7954	12.7161	0.394774	0.608016
12.7958	12.7156	0.394508	0.599203
12.7963	12.7152	0.39533	0.587972
12.7968	12.7147	0.393762	0.574907
12.7972	12.7142	0.39353	0.562662
12.7977	12.7137	0.394823	0.55453
12.7982	12.7133	0.394704	0.547995
12.7987	12.7128	0.394323	0.535841
12.7991	12.7123	0.393873	0.524058
12.7996	12.7119	0.395675	0.511185
12.8001	12.7114	0.39492	0.499206
12.8006	12.7109	0.394604	0.48763
12.801	12.7104	0.393851	0.474637
12.8015	12.71	0.394583	0.45669
12.802	12.7095	0.3945	0.438456
12.8024	12.709	0.39697	0.42579
12.8029	12.7086	0.396332	0.409232
12.8034	12.7081	0.3945	0.392129
12.8039	12.7076	0.394955	0.375466
12.8043	12.7071	0.396984	0.359148
12.8048	12.7067	0.396042	0.345406
12.8053	12.7062	0.395439	0.333726
12.8057	12.7057	0.394439	0.32066
12.8062	12.7052	0.396219	0.307715
12.8067	12.7047	0.395203	0.298232
12.8072	12.7043	0.395594	0.290715
12.8076	12.7038	0.398157	0.287563
12.8081	12.7033	0.39444	0.281595
12.8086	12.7029	0.395144	0.278409
12.8091	12.7024	0.394766	0.277581
12.8095	12.7019	0.395887	0.27706
12.81	12.7015	0.395769	0.281532
12.8105	12.701	0.394847	0.284719
12.8109	12.7005	0.394237	0.288227
12.8114	12.7	0.395995	0.290336
12.8119	12.6996	0.396502	0.296807
12.8124	12.6991	0.396389	0.302184
12.8128	12.6986	0.393548	0.306271
12.8133	12.6982	0.394883	0.308476
12.8138	12.6977	0.396178	0.312397
12.8142	12.6972	0.395057	0.315434
12.8147	12.6967	0.395303	0.319443
12.8152	12.6963	0.39485	0.32273
12.8157	12.6958	0.395397	0.320416
12.8161	12.6953	0.397349	0.319304
12.8166	12.6948	0.396604	0.318885
12.8171	12.6944	0.396453	0.318284
12.8176	12.6939	0.395253	0.314083
12.818	12.6934	0.395079	0.307769
12.8185	12.693	0.397871	0.303895
12.819	12.6925	0.397345	0.297668
12.8194	12.692	0.395572	0.293019
12.8199	12.6916	0.394363	0.288639
12.8204	12.6911	0.394792	0.281314
12.8209	12.6906	0.395154	0.27645
12.8213	12.6901	0.396168	0.274453
12.8218	12.6897	0.397237	0.273224
12.8223	12.6892	0.393971	0.272713
12.8227	12.6888	0.394564	0.271788
12.8232	12.6883	0.396576	0.272283
12.8237	12.6878	0.394885	0.275392
12.8242	12.6873	0.394909	0.281074
12.8246	12.6869	0.394023	0.284743
12.8251	12.6864	0.39371	0.286138
12.8256	12.6859	0.394306	0.291561
12.8261	12.6854	0.394736	0.29527
12.8265	12.6849	0.394948	0.301739
12.827	12.6845	0.393346	0.304676
12.8275	12.684	0.392932	0.305968
12.8279	12.6835	0.394549	0.308852
12.8284	12.683	0.392329	0.311557
12.8289	12.6826	0.394375	0.317401
12.8294	12.6821	0.393954	0.319718
12.8298	12.6817	0.392942	0.321239
12.8303	12.6812	0.395946	0.323018
12.8308	12.6807	0.395356	0.328052
12.8312	12.6802	0.395575	0.33122
12.8317	12.6797	0.394355	0.332825
12.8322	12.6793	0.395423	0.334758
12.8327	12.6788	0.395824	0.335924
12.8331	12.6784	0.396496	0.339884
12.8336	12.6779	0.395451	0.343323
12.8341	12.6774	0.394475	0.342169
12.8346	12.6769	0.395329	0.338938
12.835	12.6764	0.39526	0.339972
12.8355	12.676	0.397016	0.340347
12.836	12.6755	0.396605	0.340168
12.8364	12.675	0.394147	0.337793
12.8369	12.6745	0.394475	0.33667
12.8374	12.674	0.395455	0.33637
12.8379	12.6736	0.394419	0.336771
12.8383	12.6731	0.394397	0.335786
12.8388	12.6726	0.39368	0.33338
12.8393	12.6722	0.394843	0.3315
12.8397	12.6717	0.394282	0.329293
12.8402	12.6712	0.395017	0.328818
12.8407	12.6708	0.394267	0.328534
12.8412	12.6703	0.393291	0.325525
12.8416	12.6698	0.394544	0.321092
12.8421	12.6694	0.394686	0.319465
12.8426	12.6689	0.394803	0.318043
12.8431	12.6684	0.393003	0.315596
12.8435	12.668	0.394724	0.313448
12.844	12.6675	0.393255	0.308012
12.8445	12.667	0.394385	0.306888
12.8449	12.6665	0.394541	0.303855
12.8454	12.6661	0.393998	0.304238
12.8459	12.6656	0.393035	0.299406
12.8464	12.6651	0.393066	0.296368
12.8468	12.6646	0.395544	0.296295
12.8473	12.6642	0.393056	0.292864
12.8478	12.6637	0.39333	0.291919
12.8482	12.6632	0.393791	0.289838
12.8487	12.6628	0.393343	0.285022
12.8492	12.6623	0.393895	0.282718
12.8497	12.6618	0.392773	0.28249
12.8501	12.6614	0.393104	0.282544
12.8506	12.6609	0.392729	0.278738
12.8511	12.6604	0.391238	0.275588
12.8516	12.6599	0.392381	0.275153
12.852	12.6595	0.391291	0.273374
12.8525	12.659	0.390904	0.272977
12.853	12.6585	0.391035	0.270453
12.8534	12.6581	0.392768	0.269841
12.8539	12.6576	0.392231	0.269003
12.8544	12.6571	0.39205	0.270128
12.8549	12.6566	0.391784	0.270355
12.8553	12.6562	0.391706	0.270093
12.8558	12.6557	0.391173	0.269575
12.8563	12.6552	0.392586	0.270979
12.8567	12.6547	0.390939	0.272695
12.8572	12.6542	0.392518	0.275338
12.8577	12.6538	0.391643	0.277471
12.8582	12.6533	0.391345	0.276464
12.8586	12.6528	0.392989	0.280249
12.8591	12.6524	0.392198	0.28367
12.8596	12.6519	0.392459	0.286482
12.8601	12.6514	0.391421	0.287075
12.8605	12.651	0.392273	0.288004
12.861	12.6505	0.393082	0.29111
12.8615	12.65	0.392162	0.295595
12.8619	12.6495	0.390198	0.297381
12.8624	12.6491	0.391734	0.299503
12.8629	12.6486	0.390188	0.300663
12.8634	12.6481	0.39143	0.302986
12.8638	12.6477	0.390879	0.304873
12.8643	12.6472	0.390336	0.306957
12.8648	12.6467	0.387532	0.307483
12.8652	12.6462	0.386299	0.306402
12.8657	12.6457	0.388083	0.308822
12.8662	12.6453	0.387235	0.309583
12.8667	12.6448	0.38607	0.312148
12.8671	12.6443	0.387438	0.312858
12.8676	12.6438	0.387527	0.31226
12.8681	12.6434	0.389336	0.31398
12.8686	12.6429	0.387717	0.315793
12.869	12.6424	0.388355	0.318135
12.8695	12.642	0.389083	0.316891
12.87	12.6415	0.389773	0.316389
12.8704	12.641	0.392709	0.317057
12.8709	12.6406	0.390138	0.318094
12.8714	12.6401	0.38851	0.318096
12.8719	12.6396	0.38905	0.318446
12.8723	12.6392	0.388838	0.31529
12.8728	12.6387	0.390217	0.314479
12.8733	12.6382	0.38969	0.315989
12.8737	12.6378	0.389286	0.316939
12.8742	12.6373	0.389018	0.314905
12.8747	12.6368	0.389631	0.311744
12.8752	12.6363	0.389934	0.313402
12.8756	12.6359	0.389385	0.3129
12.8761	12.6354	0.387311	0.312425
12.8766	12.6349	0.386611	0.311245
12.8771	12.6344	0.389546	0.310279
12.8775	12.634	0.388989	0.30737
12.878	12.6335	0.388128	0.309161
12.8785	12.633	0.38822	0.310776
12.8789	12.6326	0.387721	0.309001
12.8794	12.6321	0.388108	0.308323
12.8799	12.6316	0.388791	0.307409
12.8804	12.6312	0.387991	0.309494
12.8808	12.6307	0.38728	0.309277
12.8813	12.6302	0.389044	0.309831
12.8818	12.6297	0.386359	0.308108
12.8822	12.6293	0.38758	0.307994
12.8827	12.6288	0.388112	0.310322
12.8832	12.6283	0.387859	0.312523
12.8837	12.6279	0.385442	0.308952
12.8841	12.6274	0.385444	0.307915
12.8846	12.6269	0.386589	0.30884
12.8851	12.6264	0.387565	0.309369
12.8856	12.6259	0.385545	0.309186
12.886	12.6255	0.387579	0.308726
12.8865	12.625	0.387362	0.306129
12.887	12.6245	0.38782	0.305331
12.8874	12.624	0.388871	0.305685
12.8879	12.6235	0.384963	0.307004
12.8884	12.6231	0.384585	0.302693
12.8889	12.6226	0.386165	0.302136
12.8893	12.6221	0.386987	0.301522
12.8898	12.6217	0.385531	0.301792
12.8903	12.6212	0.385262	0.300866
12.8907	12.6207	0.385625	0.300531
12.8912	12.6202	0.385715	0.298155
12.8917	12.6198	0.385697	0.299087
12.8922	12.6193	0.386042	0.302436
12.8926	12.6188	0.384977	0.301687
12.8931	12.6184	0.383902	0.29914
12.8936	12.6179	0.383893	0.297257
12.8941	12.6174	0.386045	0.298932
12.8945	12.6169	0.385271	0.300713
12.895	12.6165	0.384376	0.299204
12.8955	12.616	0.384126	0.29765
12.8959	12.6155	0.384199	0.296992
12.8964	12.615	0.384972	0.29681
12.8969	12.6146	0.382884	0.298003
12.8974	12.6141	0.381546	0.297591
12.8978	12.6136	0.382866	0.295025
12.8983	12.6132	0.381982	0.294272
12.8988	12.6127	0.383978	0.295265
