# 1304     AichiSR QXAFS
# Start     : 8.9544
# End       : 9.0544
# Dir       : Backward
# Points    : 300
# ScanTime  : 1.01549
# Date      : 13.04.23 22:25
# Ring Cur. : 25.4[mA]
12.7557	12.6118	0.301073	0.228412
12.7562	12.6122	0.298753	0.230859
12.7566	12.6127	0.300527	0.232776
12.7571	12.6131	0.301811	0.231642
12.7576	12.6136	0.30018	0.231246
12.7581	12.6141	0.303698	0.234849
12.7585	12.6146	0.302565	0.235821
12.759	12.615	0.300464	0.23459
12.7595	12.6155	0.30156	0.23472
12.7599	12.616	0.304918	0.235965
12.7604	12.6165	0.303449	0.236317
12.7609	12.6169	0.302945	0.236237
12.7614	12.6174	0.304082	0.237684
12.7618	12.6179	0.305947	0.237059
12.7623	12.6184	0.303094	0.233591
12.7628	12.6188	0.303999	0.236802
12.7632	12.6193	0.303341	0.237662
12.7637	12.6198	0.303382	0.237398
12.7642	12.6202	0.302331	0.235205
12.7647	12.6207	0.305577	0.237191
12.7651	12.6212	0.305053	0.237842
12.7656	12.6217	0.304363	0.237917
12.7661	12.6221	0.305756	0.240566
12.7666	12.6226	0.30435	0.238666
12.767	12.6231	0.307016	0.239706
12.7675	12.6235	0.304351	0.239942
12.768	12.624	0.305321	0.242205
12.7684	12.6245	0.303466	0.241545
12.7689	12.625	0.303553	0.240545
12.7694	12.6254	0.306275	0.242626
12.7699	12.6259	0.304629	0.242253
12.7703	12.6264	0.306313	0.244864
12.7708	12.6269	0.305418	0.24534
12.7713	12.6274	0.30585	0.244715
12.7717	12.6278	0.305985	0.244201
12.7722	12.6283	0.30598	0.245629
12.7727	12.6288	0.307798	0.247755
12.7732	12.6292	0.306709	0.247302
12.7736	12.6297	0.30735	0.244689
12.7741	12.6302	0.308078	0.245294
12.7746	12.6307	0.30743	0.246037
12.7751	12.6311	0.307826	0.247424
12.7755	12.6316	0.306924	0.247034
12.776	12.6321	0.306408	0.244654
12.7765	12.6325	0.308366	0.245203
12.7769	12.633	0.307145	0.245716
12.7774	12.6335	0.307718	0.246206
12.7779	12.6339	0.308473	0.245772
12.7784	12.6344	0.306916	0.244671
12.7788	12.6349	0.30877	0.247077
12.7793	12.6354	0.308401	0.248576
12.7798	12.6358	0.308701	0.249212
12.7802	12.6363	0.309198	0.248982
12.7807	12.6368	0.309884	0.248027
12.7812	12.6373	0.309057	0.248364
12.7817	12.6377	0.309178	0.250372
12.7821	12.6382	0.308747	0.252268
12.7826	12.6387	0.309763	0.252381
12.7831	12.6391	0.308811	0.249393
12.7836	12.6396	0.309715	0.251778
12.784	12.6401	0.310304	0.253384
12.7845	12.6405	0.309902	0.254188
12.785	12.641	0.311587	0.255334
12.7854	12.6415	0.311435	0.254327
12.7859	12.642	0.312288	0.253381
12.7864	12.6424	0.309967	0.253475
12.7869	12.6429	0.310641	0.255722
12.7873	12.6433	0.310142	0.253124
12.7878	12.6438	0.307537	0.251661
12.7883	12.6443	0.311885	0.253035
12.7887	12.6448	0.3081	0.251223
12.7892	12.6452	0.306269	0.248766
12.7897	12.6457	0.307936	0.250098
12.7902	12.6462	0.311138	0.246907
12.7906	12.6467	0.308381	0.246144
12.7911	12.6472	0.308935	0.246043
12.7916	12.6476	0.31169	0.246997
12.7921	12.6481	0.311916	0.244967
12.7925	12.6486	0.311033	0.241805
12.793	12.6491	0.315874	0.243651
12.7935	12.6495	0.312622	0.240621
12.7939	12.65	0.310657	0.238599
12.7944	12.6505	0.312999	0.23743
12.7949	12.6509	0.313622	0.234186
12.7954	12.6514	0.315121	0.231876
12.7958	12.6519	0.313384	0.231302
12.7963	12.6524	0.314342	0.232088
12.7968	12.6528	0.315315	0.227914
12.7972	12.6533	0.313423	0.226218
12.7977	12.6538	0.316191	0.225515
12.7982	12.6542	0.315117	0.224291
12.7987	12.6547	0.314031	0.222621
12.7991	12.6552	0.31532	0.221605
12.7996	12.6557	0.314568	0.219917
12.8001	12.6562	0.315992	0.21828
12.8006	12.6566	0.315042	0.217102
12.801	12.6571	0.315947	0.219008
12.8015	12.6576	0.315502	0.217443
12.802	12.6581	0.315805	0.21594
12.8024	12.6585	0.315391	0.216438
12.8029	12.659	0.314068	0.218345
12.8034	12.6595	0.313164	0.219461
12.8039	12.6599	0.315659	0.220601
12.8043	12.6604	0.317056	0.220181
12.8048	12.6609	0.316569	0.222103
12.8053	12.6614	0.316617	0.223929
12.8057	12.6618	0.314962	0.226727
12.8062	12.6623	0.31585	0.226905
12.8067	12.6627	0.316609	0.228809
12.8072	12.6632	0.318304	0.231557
12.8076	12.6637	0.315265	0.232449
12.8081	12.6641	0.315322	0.234603
12.8086	12.6646	0.316896	0.235398
12.8091	12.6651	0.317391	0.23758
12.8095	12.6656	0.317643	0.237781
12.81	12.6661	0.317415	0.241862
12.8105	12.6665	0.31636	0.244212
12.8109	12.667	0.315385	0.244169
12.8114	12.6675	0.317133	0.24548
12.8119	12.668	0.319089	0.249279
12.8124	12.6684	0.318489	0.251465
12.8128	12.6689	0.316535	0.252473
12.8133	12.6693	0.318571	0.256876
12.8138	12.6698	0.318348	0.25714
12.8142	12.6703	0.317731	0.259216
12.8147	12.6707	0.318392	0.262263
12.8152	12.6712	0.316787	0.264286
12.8157	12.6717	0.316139	0.262582
12.8161	12.6722	0.318175	0.263653
12.8166	12.6726	0.318711	0.267662
12.8171	12.6731	0.317483	0.268551
12.8176	12.6736	0.315829	0.27027
12.818	12.674	0.318145	0.270785
12.8185	12.6745	0.320272	0.272843
12.819	12.675	0.31947	0.272357
12.8194	12.6755	0.319389	0.274199
12.8199	12.676	0.318673	0.27496
12.8204	12.6764	0.318516	0.273502
12.8209	12.6769	0.317808	0.274433
12.8213	12.6774	0.319526	0.275228
12.8218	12.6779	0.317534	0.275476
12.8223	12.6783	0.31821	0.276369
12.8227	12.6788	0.318868	0.273963
12.8232	12.6793	0.318451	0.272623
12.8237	12.6797	0.318809	0.271794
12.8242	12.6802	0.317829	0.271568
12.8246	12.6807	0.318665	0.269611
12.8251	12.6812	0.318695	0.265213
12.8256	12.6816	0.318372	0.264076
12.8261	12.6821	0.31902	0.262336
12.8265	12.6826	0.319532	0.261296
12.827	12.683	0.316382	0.257384
12.8275	12.6835	0.316025	0.253383
12.8279	12.684	0.318744	0.251879
12.8284	12.6845	0.318127	0.249224
12.8289	12.6849	0.318292	0.248724
12.8294	12.6854	0.318329	0.245262
12.8298	12.6859	0.318445	0.241253
12.8303	12.6864	0.319301	0.237771
12.8308	12.6869	0.318321	0.234874
12.8312	12.6873	0.321144	0.232882
12.8317	12.6878	0.318544	0.229761
12.8322	12.6883	0.320303	0.226028
12.8327	12.6887	0.320288	0.222919
12.8331	12.6892	0.32027	0.221423
12.8336	12.6897	0.320024	0.220333
12.8341	12.6901	0.318379	0.221518
12.8346	12.6906	0.317747	0.220416
12.835	12.6911	0.319103	0.22203
12.8355	12.6916	0.321386	0.227101
12.836	12.692	0.321087	0.230965
12.8364	12.6925	0.319367	0.234306
12.8369	12.6929	0.319946	0.240251
12.8374	12.6934	0.320107	0.243992
12.8379	12.6939	0.321207	0.248799
12.8383	12.6944	0.320237	0.253725
12.8388	12.6948	0.322134	0.256795
12.8393	12.6953	0.318918	0.257123
12.8397	12.6958	0.320405	0.257518
12.8402	12.6963	0.32033	0.260896
12.8407	12.6967	0.319772	0.260543
12.8412	12.6972	0.317916	0.258919
12.8416	12.6977	0.318963	0.256689
12.8421	12.6982	0.320252	0.254789
12.8426	12.6986	0.318291	0.250055
12.8431	12.6991	0.320807	0.250077
12.8435	12.6995	0.319468	0.247616
12.844	12.7	0.318078	0.240317
12.8445	12.7005	0.319238	0.238016
12.8449	12.701	0.320584	0.235872
12.8454	12.7014	0.319634	0.231706
12.8459	12.7019	0.317141	0.227437
12.8464	12.7024	0.31991	0.227181
12.8468	12.7028	0.32036	0.225283
12.8473	12.7033	0.319147	0.225119
12.8478	12.7038	0.31871	0.226235
12.8482	12.7043	0.319706	0.230621
12.8487	12.7047	0.318604	0.232731
12.8492	12.7052	0.320619	0.237124
12.8497	12.7057	0.320688	0.247769
12.8501	12.7062	0.319306	0.256324
12.8506	12.7067	0.318979	0.263438
12.8511	12.7071	0.321027	0.273411
12.8516	12.7076	0.323222	0.287157
12.852	12.7081	0.321063	0.298122
12.8525	12.7086	0.319492	0.311081
12.853	12.709	0.320906	0.325922
12.8534	12.7095	0.319933	0.335848
12.8539	12.71	0.321945	0.351897
12.8544	12.7104	0.321721	0.365578
12.8549	12.7109	0.321198	0.379245
12.8553	12.7114	0.320529	0.39158
12.8558	12.7119	0.32159	0.403757
12.8563	12.7123	0.32374	0.413582
12.8567	12.7128	0.321439	0.423152
12.8572	12.7133	0.322233	0.431926
12.8577	12.7137	0.321264	0.442943
12.8582	12.7142	0.318934	0.446185
12.8586	12.7147	0.320168	0.454417
12.8591	12.7152	0.322376	0.46603
12.8596	12.7156	0.321201	0.474608
12.8601	12.7161	0.318866	0.480932
12.8605	12.7166	0.319378	0.490848
12.861	12.7171	0.323711	0.499347
12.8615	12.7175	0.322097	0.506973
12.8619	12.718	0.319992	0.510466
12.8624	12.7185	0.319726	0.50969
12.8629	12.719	0.318944	0.505329
12.8634	12.7194	0.320443	0.503174
12.8638	12.7199	0.319031	0.500281
12.8643	12.7203	0.318624	0.496892
12.8648	12.7208	0.317015	0.493049
12.8652	12.7213	0.315831	0.492492
12.8657	12.7218	0.319909	0.503635
12.8662	12.7222	0.318121	0.516773
12.8667	12.7227	0.318134	0.538299
12.8671	12.7231	0.319238	0.570637
12.8676	12.7236	0.314696	0.609261
12.8681	12.7241	0.316871	0.657929
12.8686	12.7246	0.318439	0.716939
12.869	12.725	0.314536	0.75998
12.8695	12.7255	0.311756	0.794852
12.87	12.726	0.314016	0.831735
12.8704	12.7265	0.319033	0.862917
12.8709	12.7269	0.316488	0.880376
12.8714	12.7274	0.317373	0.892131
12.8719	12.7279	0.317334	0.910647
12.8723	12.7284	0.317051	0.908124
12.8728	12.7288	0.318737	0.917615
12.8733	12.7293	0.319449	0.930572
12.8737	12.7298	0.318416	0.936822
12.8742	12.7302	0.31695	0.934216
12.8747	12.7307	0.316699	0.939166
12.8752	12.7312	0.322107	0.951187
12.8756	12.7317	0.321083	0.95474
12.8761	12.7321	0.32017	0.952856
12.8766	12.7326	0.320709	0.954857
12.8771	12.7331	0.317211	0.949266
12.8775	12.7335	0.318093	0.952739
12.878	12.734	0.321271	0.962803
12.8785	12.7345	0.319256	0.96193
12.8789	12.735	0.316901	0.952059
12.8794	12.7355	0.319657	0.957812
12.8799	12.7359	0.321813	0.96279
12.8804	12.7364	0.320966	0.962615
12.8808	12.7369	0.31966	0.965384
12.8813	12.7374	0.320053	0.968346
12.8818	12.7379	0.318625	0.964146
12.8822	12.7383	0.321249	0.968604
12.8827	12.7388	0.322413	0.973822
12.8832	12.7393	0.320791	0.973613
12.8837	12.7397	0.318919	0.967922
12.8841	12.7402	0.319983	0.967539
12.8846	12.7407	0.322257	0.977122
12.8851	12.7412	0.320254	0.971108
12.8856	12.7416	0.320757	0.978178
12.886	12.7421	0.323132	0.978516
12.8865	12.7426	0.319648	0.973818
12.887	12.743	0.321919	0.977481
12.8874	12.7435	0.323717	0.984236
12.8879	12.744	0.322965	0.984277
12.8884	12.7444	0.320453	0.980464
12.8889	12.7449	0.325471	0.98483
12.8893	12.7454	0.324256	0.982451
12.8898	12.7459	0.325155	0.98724
12.8903	12.7463	0.327103	0.993356
12.8907	12.7468	0.325308	0.988727
12.8912	12.7473	0.323145	0.984286
12.8917	12.7478	0.325754	0.986849
12.8922	12.7482	0.326221	0.995148
12.8926	12.7487	0.324434	0.988701
12.8931	12.7492	0.324296	0.988286
12.8936	12.7496	0.326022	0.99115
12.8941	12.7501	0.325964	0.988558
12.8945	12.7506	0.326246	0.99486
12.895	12.751	0.326436	0.999929
12.8955	12.7515	0.325891	0.995127
12.8959	12.752	0.32654	0.992187
12.8964	12.7524	0.327938	0.996248
12.8969	12.7529	0.328136	0.9991
12.8974	12.7534	0.325873	0.998929
12.8978	12.7538	0.325736	0.996554
12.8983	12.7543	0.326265	0.995019
12.8988	12.7548	0.328029	0.995953
