# 1304     AichiSR QXAFS
# Start     : 8.9544
# End       : 9.0544
# Dir       : Backward
# Points    : 300
# ScanTime  : 1.01549
# Date      : 13.04.23 22:23
# Ring Cur. : 25.5[mA]
12.7557	12.6118	0.306536	0.235202
12.7562	12.6122	0.304289	0.23332
12.7566	12.6127	0.308556	0.235905
12.7571	12.6131	0.308029	0.237295
12.7576	12.6136	0.305958	0.237339
12.7581	12.6141	0.305897	0.237298
12.7585	12.6145	0.308949	0.238127
12.759	12.615	0.307982	0.238883
12.7595	12.6155	0.308242	0.238989
12.7599	12.616	0.307486	0.240987
12.7604	12.6164	0.306217	0.238908
12.7609	12.6169	0.308326	0.239071
12.7614	12.6174	0.311304	0.240135
12.7618	12.6179	0.309908	0.241051
12.7623	12.6183	0.307082	0.240703
12.7628	12.6188	0.310016	0.242256
12.7632	12.6193	0.308276	0.240783
12.7637	12.6197	0.310133	0.240369
12.7642	12.6202	0.308403	0.240455
12.7647	12.6207	0.308074	0.24257
12.7651	12.6212	0.308446	0.241547
12.7656	12.6217	0.306444	0.237302
12.7661	12.6221	0.311377	0.242625
12.7666	12.6226	0.310322	0.242615
12.767	12.6231	0.309111	0.243729
12.7675	12.6235	0.307285	0.241898
12.768	12.624	0.309408	0.245536
12.7684	12.6245	0.311356	0.244094
12.7689	12.625	0.307814	0.243928
12.7694	12.6254	0.309752	0.247473
12.7699	12.6259	0.309044	0.24557
12.7703	12.6264	0.307577	0.245024
12.7708	12.6269	0.310258	0.246416
12.7713	12.6273	0.310064	0.249371
12.7717	12.6278	0.309032	0.249475
12.7722	12.6283	0.307152	0.247324
12.7727	12.6288	0.308983	0.246683
12.7732	12.6292	0.309604	0.246718
12.7736	12.6297	0.310107	0.249003
12.7741	12.6302	0.310618	0.250015
12.7746	12.6306	0.30845	0.248039
12.7751	12.6311	0.307857	0.24604
12.7755	12.6316	0.312018	0.248521
12.776	12.6321	0.312277	0.249536
12.7765	12.6325	0.309327	0.247475
12.7769	12.633	0.309292	0.247757
12.7774	12.6334	0.310299	0.24672
12.7779	12.6339	0.311131	0.246483
12.7784	12.6344	0.310371	0.247401
12.7788	12.6349	0.310395	0.250172
12.7793	12.6353	0.310284	0.24836
12.7798	12.6358	0.310296	0.246514
12.7802	12.6363	0.311734	0.250625
12.7807	12.6368	0.311177	0.251442
12.7812	12.6372	0.309703	0.250992
12.7817	12.6377	0.311529	0.25145
12.7821	12.6382	0.310098	0.250386
12.7826	12.6387	0.311762	0.251401
12.7831	12.6391	0.311813	0.254266
12.7836	12.6396	0.311344	0.254362
12.784	12.64	0.308932	0.253204
12.7845	12.6405	0.309566	0.252426
12.785	12.641	0.312345	0.254677
12.7854	12.6415	0.311375	0.254475
12.7859	12.6419	0.309045	0.253364
12.7864	12.6424	0.310818	0.254559
12.7869	12.6429	0.309783	0.252307
12.7873	12.6433	0.309914	0.250976
12.7878	12.6438	0.309943	0.253905
12.7883	12.6443	0.308939	0.252654
12.7887	12.6447	0.309366	0.251656
12.7892	12.6452	0.307583	0.24829
12.7897	12.6457	0.310335	0.248036
12.7902	12.6462	0.310837	0.249953
12.7906	12.6467	0.309038	0.248368
12.7911	12.6471	0.308764	0.246001
12.7916	12.6476	0.309767	0.245094
12.7921	12.6481	0.312435	0.245122
12.7925	12.6486	0.310266	0.243287
12.793	12.649	0.310456	0.24283
12.7935	12.6495	0.311457	0.239951
12.7939	12.65	0.311051	0.236388
12.7944	12.6504	0.312511	0.236534
12.7949	12.6509	0.312345	0.23651
12.7954	12.6514	0.311217	0.233807
12.7958	12.6519	0.312336	0.230306
12.7963	12.6523	0.313054	0.228711
12.7968	12.6528	0.314392	0.226813
12.7972	12.6533	0.313361	0.225943
12.7977	12.6537	0.312764	0.226274
12.7982	12.6542	0.312405	0.221367
12.7987	12.6547	0.313243	0.219806
12.7991	12.6552	0.318337	0.221203
12.7996	12.6557	0.316437	0.221422
12.8001	12.6561	0.311695	0.218373
12.8006	12.6566	0.31336	0.216932
12.801	12.6571	0.313978	0.216135
12.8015	12.6576	0.313474	0.215693
12.802	12.658	0.311864	0.216832
12.8024	12.6585	0.313889	0.218855
12.8029	12.659	0.314229	0.217624
12.8034	12.6594	0.314119	0.216161
12.8039	12.6599	0.314963	0.21904
12.8043	12.6604	0.314567	0.222475
12.8048	12.6609	0.314481	0.221512
12.8053	12.6613	0.314607	0.223592
12.8057	12.6618	0.316846	0.223996
12.8062	12.6623	0.31536	0.225142
12.8067	12.6627	0.315471	0.228552
12.8072	12.6632	0.315184	0.230277
12.8076	12.6637	0.314661	0.230381
12.8081	12.6641	0.315597	0.231293
12.8086	12.6646	0.315953	0.235337
12.8091	12.6651	0.316593	0.237263
12.8095	12.6656	0.314566	0.239429
12.81	12.666	0.316028	0.240581
12.8105	12.6665	0.319473	0.242004
12.8109	12.667	0.31649	0.243717
12.8114	12.6675	0.31618	0.247207
12.8119	12.6679	0.318437	0.250747
12.8124	12.6684	0.31617	0.249794
12.8128	12.6689	0.317695	0.251197
12.8133	12.6693	0.31851	0.25642
12.8138	12.6698	0.318383	0.258283
12.8142	12.6703	0.317787	0.259361
12.8147	12.6707	0.317764	0.2607
12.8152	12.6712	0.319096	0.263561
12.8157	12.6717	0.317783	0.264531
12.8161	12.6721	0.318394	0.267596
12.8166	12.6726	0.32011	0.270066
12.8171	12.6731	0.318491	0.269055
12.8176	12.6735	0.321693	0.270483
12.818	12.674	0.320648	0.272076
12.8185	12.6745	0.320954	0.275418
12.819	12.675	0.318649	0.274212
12.8194	12.6755	0.320405	0.275775
12.8199	12.6759	0.322774	0.275623
12.8204	12.6764	0.321608	0.276462
12.8209	12.6769	0.320001	0.278064
12.8213	12.6774	0.320899	0.279042
12.8218	12.6779	0.318667	0.275725
12.8223	12.6783	0.322254	0.275661
12.8227	12.6788	0.320829	0.276509
12.8232	12.6793	0.321971	0.277175
12.8237	12.6797	0.321162	0.27498
12.8242	12.6802	0.320388	0.27271
12.8246	12.6807	0.324151	0.27046
12.8251	12.6812	0.323209	0.270079
12.8256	12.6816	0.323285	0.268623
12.8261	12.6821	0.319996	0.265491
12.8265	12.6826	0.321273	0.261582
12.827	12.683	0.322434	0.258457
12.8275	12.6835	0.323019	0.257802
12.8279	12.684	0.322404	0.255809
12.8284	12.6844	0.320983	0.253766
12.8289	12.6849	0.320103	0.249144
12.8294	12.6854	0.32328	0.246732
12.8298	12.6859	0.323548	0.244419
12.8303	12.6864	0.322101	0.242245
12.8308	12.6868	0.324082	0.239297
12.8312	12.6873	0.32274	0.234059
12.8317	12.6878	0.323872	0.230347
12.8322	12.6883	0.324802	0.228683
12.8327	12.6887	0.325847	0.227893
12.8331	12.6892	0.324243	0.225262
12.8336	12.6897	0.322424	0.221471
12.8341	12.6901	0.326358	0.223476
12.8346	12.6906	0.326097	0.226195
12.835	12.6911	0.323582	0.227941
12.8355	12.6915	0.325679	0.231835
12.836	12.692	0.324282	0.232938
12.8364	12.6925	0.325863	0.237113
12.8369	12.6929	0.325744	0.244713
12.8374	12.6934	0.326996	0.25089
12.8379	12.6939	0.323694	0.252223
12.8383	12.6943	0.324093	0.255675
12.8388	12.6948	0.328672	0.260426
12.8393	12.6953	0.326174	0.262589
12.8397	12.6958	0.324755	0.263893
12.8402	12.6962	0.326828	0.267103
12.8407	12.6967	0.324773	0.263328
12.8412	12.6972	0.325052	0.260993
12.8416	12.6977	0.325573	0.262575
12.8421	12.6981	0.327149	0.262046
12.8426	12.6986	0.323943	0.25693
12.8431	12.6991	0.324843	0.251432
12.8435	12.6995	0.326472	0.249553
12.844	12.7	0.32583	0.245688
12.8445	12.7005	0.325216	0.244853
12.8449	12.7009	0.326905	0.241017
12.8454	12.7014	0.324393	0.234219
12.8459	12.7019	0.326092	0.231244
12.8464	12.7024	0.328147	0.232619
12.8468	12.7028	0.326249	0.231395
12.8473	12.7033	0.32712	0.229525
12.8478	12.7038	0.326268	0.23067
12.8482	12.7042	0.329296	0.234535
12.8487	12.7047	0.326963	0.239037
12.8492	12.7052	0.326544	0.246018
12.8497	12.7057	0.32699	0.253063
12.8501	12.7062	0.32668	0.258429
12.8506	12.7066	0.327498	0.268654
12.8511	12.7071	0.327169	0.282168
12.8516	12.7076	0.32981	0.295347
12.852	12.7081	0.3267	0.305941
12.8525	12.7086	0.328162	0.315177
12.853	12.709	0.331393	0.332679
12.8534	12.7095	0.328837	0.347001
12.8539	12.7099	0.328411	0.360321
12.8544	12.7104	0.330208	0.375253
12.8549	12.7109	0.327897	0.386879
12.8553	12.7114	0.330224	0.398972
12.8558	12.7119	0.329211	0.411259
12.8563	12.7123	0.329435	0.424431
12.8567	12.7128	0.328437	0.433525
12.8572	12.7132	0.329548	0.442865
12.8577	12.7137	0.330741	0.450881
12.8582	12.7142	0.32873	0.457721
12.8586	12.7147	0.329068	0.468704
12.8591	12.7151	0.329907	0.477179
12.8596	12.7156	0.327032	0.482026
12.8601	12.7161	0.329717	0.492019
12.8605	12.7166	0.329593	0.502826
12.861	12.7171	0.329123	0.516136
12.8615	12.7175	0.327233	0.517225
12.8619	12.718	0.328114	0.523008
12.8624	12.7185	0.330858	0.524619
12.8629	12.7189	0.328749	0.520585
12.8634	12.7194	0.327049	0.518213
12.8638	12.7199	0.328708	0.515682
12.8643	12.7203	0.32767	0.508506
12.8648	12.7208	0.327576	0.50609
12.8652	12.7213	0.328845	0.51167
12.8657	12.7218	0.326179	0.518413
12.8662	12.7222	0.327101	0.53156
12.8667	12.7227	0.328721	0.552912
12.8671	12.7231	0.328637	0.590264
12.8676	12.7236	0.326365	0.628061
12.8681	12.7241	0.324388	0.684605
12.8686	12.7245	0.325753	0.734089
12.869	12.725	0.32265	0.776495
12.8695	12.7255	0.324366	0.819567
12.87	12.726	0.326278	0.863827
12.8704	12.7264	0.324805	0.890518
12.8709	12.7269	0.323997	0.901586
12.8714	12.7274	0.32504	0.91888
12.8719	12.7279	0.328654	0.937251
12.8723	12.7284	0.327758	0.942783
12.8728	12.7288	0.327015	0.949544
12.8733	12.7293	0.328372	0.95837
12.8737	12.7297	0.328393	0.960415
12.8742	12.7302	0.328799	0.964228
12.8747	12.7307	0.328863	0.969332
12.8752	12.7312	0.329212	0.977333
12.8756	12.7317	0.327914	0.973298
12.8761	12.7321	0.329695	0.977117
12.8766	12.7326	0.331477	0.9815
12.8771	12.7331	0.327491	0.9793
12.8775	12.7335	0.328548	0.985339
12.878	12.734	0.328321	0.987225
12.8785	12.7345	0.329221	0.984751
12.8789	12.735	0.328521	0.984589
12.8794	12.7354	0.329315	0.992363
12.8799	12.7359	0.329107	0.99574
12.8804	12.7364	0.329224	0.990316
12.8808	12.7369	0.329147	0.990103
12.8813	12.7374	0.331525	0.997653
12.8818	12.7378	0.330923	0.997068
12.8822	12.7383	0.329647	0.997859
12.8827	12.7388	0.330844	0.998347
12.8832	12.7393	0.330133	0.998044
12.8837	12.7397	0.329868	0.996597
12.8841	12.7402	0.331673	1.0014
12.8846	12.7407	0.330364	1.00312
12.8851	12.7411	0.329732	0.997566
12.8856	12.7416	0.331566	0.999825
12.886	12.7421	0.330657	1.00532
12.8865	12.7425	0.330516	1.00559
12.887	12.743	0.329501	1.0079
12.8874	12.7435	0.33139	1.00777
12.8879	12.7439	0.332041	1.0064
12.8884	12.7444	0.331669	1.00592
12.8889	12.7449	0.332213	1.01029
12.8893	12.7454	0.331144	1.01314
12.8898	12.7459	0.329777	1.00555
12.8903	12.7463	0.331329	1.00756
12.8907	12.7468	0.333634	1.00979
12.8912	12.7473	0.331024	1.01027
12.8917	12.7478	0.329783	1.00915
12.8922	12.7482	0.332295	1.01464
12.8926	12.7487	0.33363	1.01271
12.8931	12.7492	0.331413	1.00894
12.8936	12.7496	0.333568	1.01478
12.8941	12.7501	0.334547	1.01879
12.8945	12.7506	0.331776	1.01247
12.895	12.751	0.333253	1.01282
12.8955	12.7515	0.333855	1.01576
12.8959	12.752	0.332759	1.01366
12.8964	12.7524	0.331758	1.01701
12.8969	12.7529	0.332699	1.01371
12.8974	12.7534	0.33393	1.01251
12.8978	12.7538	0.332596	1.00911
12.8983	12.7543	0.332481	1.01688
12.8988	12.7548	0.333242	1.0186
