# 1304     AichiSR QXAFS
# Start     : 8.9544
# End       : 9.0544
# Dir       : Backward
# Points    : 300
# ScanTime  : 1.01549
# Date      : 13.04.23 22:32
# Ring Cur. : 25.7[mA]
12.7557	12.6118	0.310359	0.237925
12.7562	12.6123	0.307932	0.237808
12.7566	12.6127	0.307196	0.237793
12.7571	12.6132	0.311073	0.23927
12.7576	12.6137	0.310302	0.238636
12.7581	12.6141	0.310138	0.240763
12.7585	12.6146	0.311523	0.243533
12.759	12.6151	0.309497	0.241688
12.7595	12.6156	0.310891	0.240639
12.7599	12.6161	0.313879	0.24243
12.7604	12.6165	0.311686	0.242705
12.7609	12.617	0.309975	0.242917
12.7614	12.6175	0.312085	0.244586
12.7618	12.618	0.313506	0.243447
12.7623	12.6184	0.311652	0.240603
12.7628	12.6189	0.311899	0.244057
12.7632	12.6194	0.313606	0.24494
12.7637	12.6198	0.310841	0.242943
12.7642	12.6203	0.310211	0.241158
12.7647	12.6208	0.314531	0.243995
12.7651	12.6213	0.311797	0.243654
12.7656	12.6217	0.309394	0.242825
12.7661	12.6222	0.312971	0.244704
12.7666	12.6227	0.31005	0.24366
12.767	12.6231	0.31463	0.24527
12.7675	12.6236	0.312321	0.246524
12.768	12.6241	0.313452	0.248965
12.7684	12.6246	0.311859	0.246274
12.7689	12.625	0.310986	0.246247
12.7694	12.6255	0.31584	0.248834
12.7699	12.626	0.311466	0.25047
12.7703	12.6265	0.311466	0.250069
12.7708	12.627	0.311833	0.24951
12.7713	12.6274	0.310552	0.249503
12.7717	12.6279	0.313158	0.249511
12.7722	12.6284	0.312116	0.250895
12.7727	12.6289	0.312118	0.25117
12.7732	12.6293	0.311649	0.24875
12.7736	12.6298	0.312717	0.249643
12.7741	12.6302	0.315034	0.250477
12.7746	12.6307	0.313102	0.252735
12.7751	12.6312	0.312821	0.252162
12.7755	12.6317	0.312195	0.250252
12.776	12.6321	0.313803	0.249571
12.7765	12.6326	0.315531	0.249808
12.7769	12.6331	0.314654	0.251375
12.7774	12.6335	0.314142	0.252222
12.7779	12.634	0.312616	0.251747
12.7784	12.6345	0.312068	0.249464
12.7788	12.6349	0.31592	0.251301
12.7793	12.6354	0.314256	0.251344
12.7798	12.6359	0.312694	0.252691
12.7802	12.6364	0.31349	0.252811
12.7807	12.6369	0.314062	0.250992
12.7812	12.6373	0.313931	0.253624
12.7817	12.6378	0.316725	0.256261
12.7821	12.6383	0.315296	0.257698
12.7826	12.6387	0.312892	0.254744
12.7831	12.6392	0.314293	0.254254
12.7836	12.6397	0.318133	0.257428
12.784	12.6401	0.314477	0.257903
12.7845	12.6406	0.312425	0.256695
12.785	12.6411	0.313722	0.255977
12.7854	12.6416	0.313727	0.255543
12.7859	12.642	0.314603	0.256159
12.7864	12.6425	0.315345	0.257918
12.7869	12.6429	0.313207	0.25844
12.7873	12.6434	0.312987	0.255186
12.7878	12.6439	0.312964	0.253319
12.7883	12.6443	0.315163	0.254662
12.7887	12.6448	0.314519	0.256022
12.7892	12.6453	0.311992	0.251824
12.7897	12.6458	0.311808	0.250892
12.7902	12.6463	0.313742	0.2509
12.7906	12.6467	0.31189	0.249542
12.7911	12.6472	0.313628	0.249076
12.7916	12.6477	0.314075	0.249869
12.7921	12.6482	0.314143	0.246253
12.7925	12.6487	0.313027	0.242786
12.793	12.6491	0.315817	0.243038
12.7935	12.6496	0.315059	0.243018
12.7939	12.6501	0.313097	0.240133
12.7944	12.6505	0.315725	0.237646
12.7949	12.651	0.317445	0.236118
12.7954	12.6515	0.316032	0.233208
12.7958	12.652	0.318653	0.235591
12.7963	12.6524	0.316548	0.233804
12.7968	12.6529	0.316716	0.229359
12.7972	12.6534	0.316826	0.226064
12.7977	12.6538	0.318237	0.225938
12.7982	12.6543	0.316708	0.225514
12.7987	12.6548	0.315091	0.223973
12.7991	12.6553	0.315377	0.220099
12.7996	12.6558	0.317613	0.220072
12.8001	12.6562	0.320375	0.221407
12.8006	12.6567	0.3194	0.221999
12.801	12.6572	0.317087	0.220142
12.8015	12.6577	0.315066	0.217508
12.802	12.6581	0.317777	0.219189
12.8024	12.6586	0.318855	0.219029
12.8029	12.6591	0.317871	0.219639
12.8034	12.6595	0.317072	0.222057
12.8039	12.66	0.318034	0.221195
12.8043	12.6605	0.317822	0.220791
12.8048	12.6609	0.317896	0.224716
12.8053	12.6614	0.319694	0.227588
12.8057	12.6619	0.318805	0.229069
12.8062	12.6624	0.31708	0.227291
12.8067	12.6628	0.319038	0.229908
12.8072	12.6633	0.31931	0.231928
12.8076	12.6637	0.319729	0.236426
12.8081	12.6642	0.318928	0.235558
12.8086	12.6647	0.318579	0.237625
12.8091	12.6652	0.320186	0.239681
12.8095	12.6656	0.319951	0.24102
12.81	12.6661	0.320803	0.245945
12.8105	12.6666	0.321131	0.247606
12.8109	12.6671	0.31937	0.246548
12.8114	12.6675	0.321178	0.248659
12.8119	12.668	0.32223	0.252397
12.8124	12.6685	0.321066	0.25497
12.8128	12.6689	0.320619	0.256962
12.8133	12.6694	0.321706	0.258204
12.8138	12.6699	0.322759	0.259434
12.8142	12.6703	0.320862	0.261194
12.8147	12.6708	0.322349	0.26616
12.8152	12.6713	0.324366	0.269291
12.8157	12.6718	0.321361	0.267247
12.8161	12.6722	0.324693	0.268369
12.8166	12.6727	0.324823	0.273113
12.8171	12.6732	0.323728	0.275676
12.8176	12.6736	0.320998	0.27434
12.818	12.6741	0.323234	0.275155
12.8185	12.6746	0.325511	0.276192
12.819	12.6751	0.323675	0.276362
12.8194	12.6755	0.323571	0.278741
12.8199	12.676	0.32304	0.280294
12.8204	12.6765	0.322797	0.278641
12.8209	12.677	0.323194	0.278534
12.8213	12.6775	0.324214	0.280368
12.8218	12.6779	0.323624	0.281301
12.8223	12.6784	0.322267	0.281608
12.8227	12.6789	0.325217	0.280389
12.8232	12.6793	0.327063	0.278498
12.8237	12.6798	0.324908	0.277301
12.8242	12.6803	0.32642	0.277116
12.8246	12.6808	0.325337	0.275597
12.8251	12.6812	0.324865	0.270527
12.8256	12.6817	0.325367	0.26777
12.8261	12.6822	0.324784	0.266377
12.8265	12.6826	0.324932	0.264292
12.827	12.6831	0.324781	0.263304
12.8275	12.6836	0.323991	0.257501
12.8279	12.6841	0.325894	0.256037
12.8284	12.6845	0.326214	0.254173
12.8289	12.685	0.326596	0.254158
12.8294	12.6855	0.325582	0.250808
12.8298	12.686	0.325448	0.246749
12.8303	12.6864	0.327959	0.242693
12.8308	12.6869	0.328146	0.240469
12.8312	12.6874	0.327897	0.237416
12.8317	12.6879	0.328416	0.233866
12.8322	12.6884	0.328338	0.23025
12.8327	12.6888	0.32869	0.22697
12.8331	12.6893	0.327908	0.225873
12.8336	12.6897	0.327559	0.226571
12.8341	12.6902	0.328356	0.227036
12.8346	12.6907	0.326749	0.226297
12.835	12.6912	0.329614	0.228548
12.8355	12.6916	0.329567	0.234575
12.836	12.6921	0.32962	0.239521
12.8364	12.6926	0.328229	0.242388
12.8369	12.693	0.327877	0.246592
12.8374	12.6935	0.330017	0.251739
12.8379	12.6939	0.329883	0.257255
12.8383	12.6944	0.32958	0.261509
12.8388	12.6949	0.330582	0.265269
12.8393	12.6954	0.328216	0.263757
12.8397	12.6959	0.329164	0.265934
12.8402	12.6963	0.329076	0.268702
12.8407	12.6968	0.328765	0.26778
12.8412	12.6973	0.326603	0.266429
12.8416	12.6978	0.328763	0.263256
12.8421	12.6982	0.331372	0.261479
12.8426	12.6987	0.328198	0.258288
12.8431	12.6991	0.329962	0.25809
12.8435	12.6996	0.330229	0.253573
12.844	12.7001	0.327966	0.247239
12.8445	12.7005	0.329759	0.243148
12.8449	12.701	0.330773	0.241152
12.8454	12.7015	0.330089	0.238894
12.8459	12.702	0.327417	0.234804
12.8464	12.7024	0.328238	0.231965
12.8468	12.7029	0.330641	0.231495
12.8473	12.7034	0.32983	0.23194
12.8478	12.7039	0.329353	0.235164
12.8482	12.7043	0.3299	0.238166
12.8487	12.7048	0.327876	0.240981
12.8492	12.7053	0.331941	0.247257
12.8497	12.7058	0.331186	0.257401
12.8501	12.7063	0.330455	0.266202
12.8506	12.7067	0.330948	0.276436
12.8511	12.7072	0.329363	0.286381
12.8516	12.7077	0.333353	0.298436
12.852	12.7082	0.331871	0.312506
12.8525	12.7086	0.331971	0.32729
12.853	12.7091	0.331009	0.340339
12.8534	12.7096	0.330832	0.351775
12.8539	12.71	0.334296	0.367334
12.8544	12.7105	0.33289	0.382857
12.8549	12.711	0.332312	0.397328
12.8553	12.7115	0.331505	0.406711
12.8558	12.7119	0.332053	0.418142
12.8563	12.7124	0.334069	0.429743
12.8567	12.7129	0.334797	0.441005
12.8572	12.7133	0.331875	0.45149
12.8577	12.7138	0.332507	0.459505
12.8582	12.7143	0.330928	0.467354
12.8586	12.7147	0.334305	0.472841
12.8591	12.7152	0.33195	0.483534
12.8596	12.7157	0.334196	0.496429
12.8601	12.7162	0.3317	0.501874
12.8605	12.7167	0.331357	0.507949
12.861	12.7171	0.33399	0.517369
12.8615	12.7176	0.331433	0.524885
12.8619	12.7181	0.331078	0.530798
12.8624	12.7186	0.332112	0.528426
12.8629	12.719	0.331299	0.52464
12.8634	12.7195	0.331409	0.520619
12.8638	12.7199	0.333175	0.517276
12.8643	12.7204	0.332812	0.516929
12.8648	12.7209	0.332599	0.513499
12.8652	12.7214	0.331285	0.51547
12.8657	12.7218	0.332767	0.526873
12.8662	12.7223	0.331513	0.541856
12.8667	12.7228	0.332096	0.569304
12.8671	12.7232	0.330416	0.603843
12.8676	12.7237	0.328974	0.644428
12.8681	12.7242	0.327916	0.69752
12.8686	12.7246	0.326273	0.753979
12.869	12.7251	0.326067	0.803304
12.8695	12.7256	0.325329	0.839557
12.87	12.7261	0.327383	0.872679
12.8704	12.7265	0.331667	0.900837
12.8709	12.727	0.329098	0.921879
12.8714	12.7275	0.33073	0.937079
12.8719	12.728	0.331484	0.95138
12.8723	12.7284	0.329924	0.954524
12.8728	12.7289	0.330056	0.95835
12.8733	12.7294	0.331944	0.970061
12.8737	12.7298	0.331496	0.974688
12.8742	12.7303	0.329106	0.969651
12.8747	12.7308	0.330673	0.977133
12.8752	12.7313	0.332951	0.982535
12.8756	12.7317	0.331276	0.980729
12.8761	12.7322	0.330777	0.989355
12.8766	12.7327	0.332408	0.991462
12.8771	12.7331	0.330806	0.988859
12.8775	12.7336	0.332341	0.989853
12.878	12.7341	0.334293	0.997978
12.8785	12.7346	0.332824	1.00461
12.8789	12.7351	0.331016	0.995073
12.8794	12.7355	0.332436	0.998919
12.8799	12.736	0.333834	0.999811
12.8804	12.7365	0.332635	1.0031
12.8808	12.737	0.330838	1.00396
12.8813	12.7375	0.331246	1.00389
12.8818	12.7379	0.332341	0.999668
12.8822	12.7384	0.332545	1.00003
12.8827	12.7389	0.334683	1.00752
12.8832	12.7393	0.332838	1.0083
12.8837	12.7398	0.333368	1.00759
12.8841	12.7403	0.333121	1.00955
12.8846	12.7407	0.335881	1.0125
12.8851	12.7412	0.33345	1.01197
12.8856	12.7417	0.334787	1.01674
12.886	12.7422	0.335382	1.01541
12.8865	12.7426	0.334079	1.01264
12.887	12.7431	0.334185	1.01234
12.8874	12.7436	0.335895	1.01689
12.8879	12.744	0.333635	1.01708
12.8884	12.7445	0.333744	1.01172
12.8889	12.745	0.333521	1.01464
12.8893	12.7455	0.333984	1.01644
12.8898	12.7459	0.335382	1.0169
12.8903	12.7464	0.333866	1.02048
12.8907	12.7469	0.335107	1.02031
12.8912	12.7474	0.335029	1.01949
12.8917	12.7478	0.336169	1.0229
12.8922	12.7483	0.337395	1.02295
12.8926	12.7488	0.334906	1.02374
12.8931	12.7492	0.335951	1.02106
12.8936	12.7497	0.336767	1.02264
12.8941	12.7502	0.336063	1.0241
12.8945	12.7506	0.3366	1.02261
12.895	12.7511	0.334299	1.02501
12.8955	12.7516	0.33482	1.02132
12.8959	12.7521	0.335971	1.01968
12.8964	12.7525	0.335164	1.01952
12.8969	12.753	0.334377	1.02176
12.8974	12.7534	0.335349	1.02672
12.8978	12.7539	0.335322	1.02122
12.8983	12.7544	0.33659	1.0258
12.8988	12.7549	0.336022	1.02584
