# 1304     AichiSR QXAFS
# Start     : 8.9544
# End       : 9.0544
# Dir       : Forward
# Points    : 300
# ScanTime  : 1.01549
# Date      : 13.04.23 22:29
# Ring Cur. : 25.7[mA]
12.7557	12.7558	0.399615	1.21981
12.7562	12.7553	0.403415	1.21975
12.7566	12.7548	0.401231	1.22199
12.7571	12.7543	0.400779	1.22369
12.7576	12.7539	0.401829	1.2211
12.7581	12.7534	0.39927	1.21837
12.7585	12.7529	0.402354	1.22115
12.759	12.7525	0.399796	1.21943
12.7595	12.752	0.400769	1.223
12.7599	12.7515	0.400565	1.21742
12.7604	12.7511	0.398672	1.21671
12.7609	12.7506	0.399665	1.21557
12.7614	12.7501	0.39929	1.21843
12.7618	12.7496	0.396669	1.21909
12.7623	12.7492	0.399342	1.21344
12.7628	12.7487	0.398401	1.21592
12.7632	12.7483	0.401095	1.21582
12.7637	12.7478	0.399289	1.2183
12.7642	12.7473	0.399019	1.21572
12.7647	12.7468	0.398291	1.21304
12.7651	12.7464	0.398691	1.20853
12.7656	12.7459	0.398945	1.20889
12.7661	12.7454	0.397664	1.21314
12.7666	12.7449	0.399673	1.21317
12.767	12.7445	0.397544	1.21182
12.7675	12.744	0.396095	1.2077
12.768	12.7435	0.398909	1.20608
12.7684	12.743	0.399207	1.21066
12.7689	12.7426	0.396494	1.20811
12.7694	12.7421	0.397552	1.20735
12.7699	12.7417	0.397433	1.20318
12.7703	12.7412	0.402574	1.21713
12.7708	12.7407	0.399766	1.216
12.7713	12.7402	0.398251	1.20713
12.7717	12.7397	0.398585	1.20221
12.7722	12.7393	0.397177	1.19816
12.7727	12.7388	0.398677	1.2027
12.7732	12.7384	0.397764	1.20198
12.7736	12.7379	0.395906	1.20181
12.7741	12.7374	0.396603	1.19884
12.7746	12.7369	0.396286	1.1932
12.7751	12.7364	0.397222	1.19318
12.7755	12.736	0.396437	1.19475
12.776	12.7355	0.396298	1.19586
12.7765	12.735	0.396627	1.19349
12.7769	12.7345	0.396303	1.18923
12.7774	12.734	0.400028	1.18894
12.7779	12.7336	0.396781	1.18968
12.7784	12.7331	0.396407	1.18839
12.7788	12.7326	0.397011	1.18589
12.7793	12.7322	0.394478	1.18154
12.7798	12.7317	0.395439	1.1754
12.7802	12.7312	0.397252	1.1768
12.7807	12.7307	0.396485	1.17858
12.7812	12.7303	0.395349	1.1695
12.7817	12.7298	0.394763	1.16243
12.7821	12.7293	0.397586	1.16384
12.7826	12.7289	0.397656	1.16129
12.7831	12.7284	0.396273	1.15155
12.7836	12.7279	0.394599	1.14247
12.784	12.7275	0.396022	1.1343
12.7845	12.727	0.395188	1.12138
12.785	12.7265	0.394955	1.10842
12.7854	12.726	0.394651	1.08929
12.7859	12.7255	0.392514	1.05515
12.7864	12.7251	0.390499	1.01402
12.7869	12.7246	0.39359	0.972397
12.7873	12.7241	0.39202	0.920092
12.7878	12.7236	0.392212	0.85915
12.7883	12.7232	0.395411	0.794705
12.7887	12.7227	0.394945	0.736801
12.7892	12.7223	0.398386	0.691592
12.7897	12.7218	0.397846	0.660266
12.7902	12.7213	0.39624	0.637127
12.7906	12.7208	0.395967	0.620918
12.7911	12.7204	0.396887	0.614011
12.7916	12.7199	0.398446	0.616398
12.7921	12.7194	0.39907	0.618615
12.7925	12.719	0.396827	0.624481
12.793	12.7185	0.396319	0.62862
12.7935	12.7181	0.396598	0.632324
12.7939	12.7176	0.39892	0.63104
12.7944	12.7171	0.396921	0.629002
12.7949	12.7166	0.397087	0.624692
12.7954	12.7161	0.396788	0.612045
12.7958	12.7157	0.396968	0.60076
12.7963	12.7152	0.396862	0.590763
12.7968	12.7147	0.399514	0.581608
12.7972	12.7142	0.39775	0.573177
12.7977	12.7138	0.398073	0.55918
12.7982	12.7133	0.397952	0.548497
12.7987	12.7128	0.398989	0.539368
12.7991	12.7124	0.39903	0.529769
12.7996	12.7119	0.398428	0.518787
12.8001	12.7114	0.397201	0.503171
12.8006	12.7109	0.397224	0.487739
12.801	12.7105	0.400207	0.475463
12.8015	12.71	0.399288	0.462016
12.802	12.7095	0.397297	0.445201
12.8024	12.7091	0.398888	0.426972
12.8029	12.7086	0.399173	0.410423
12.8034	12.7081	0.397786	0.392485
12.8039	12.7077	0.400029	0.378836
12.8043	12.7072	0.398601	0.365728
12.8048	12.7067	0.399422	0.348741
12.8053	12.7062	0.398719	0.332402
12.8057	12.7057	0.400579	0.321569
12.8062	12.7052	0.400238	0.314172
12.8067	12.7048	0.397314	0.304192
12.8072	12.7043	0.399318	0.293826
12.8076	12.7038	0.398996	0.286454
12.8081	12.7033	0.39724	0.281761
12.8086	12.7029	0.397936	0.282437
12.8091	12.7024	0.398643	0.281137
12.8095	12.7019	0.398851	0.281417
12.81	12.7015	0.39871	0.28233
12.8105	12.701	0.400591	0.285832
12.8109	12.7005	0.400536	0.29079
12.8114	12.7	0.398609	0.295588
12.8119	12.6996	0.398105	0.29925
12.8124	12.6991	0.399086	0.303162
12.8128	12.6987	0.401064	0.307964
12.8133	12.6982	0.399292	0.313115
12.8138	12.6977	0.399288	0.317239
12.8142	12.6972	0.397874	0.318344
12.8147	12.6968	0.399198	0.319937
12.8152	12.6963	0.399179	0.323345
12.8157	12.6958	0.399499	0.324883
12.8161	12.6953	0.398559	0.323085
12.8166	12.6949	0.399726	0.320925
12.8171	12.6944	0.40024	0.317227
12.8176	12.6939	0.399427	0.314905
12.818	12.6934	0.39901	0.312261
12.8185	12.693	0.397682	0.307876
12.819	12.6925	0.39676	0.301868
12.8194	12.6921	0.398008	0.293785
12.8199	12.6916	0.400928	0.2886
12.8204	12.6911	0.400231	0.286119
12.8209	12.6906	0.398217	0.279728
12.8213	12.6902	0.397092	0.275567
12.8218	12.6897	0.4001	0.27362
12.8223	12.6892	0.399873	0.273394
12.8227	12.6888	0.398812	0.275278
12.8232	12.6883	0.398177	0.275627
12.8237	12.6878	0.398805	0.278178
12.8242	12.6874	0.397158	0.280443
12.8246	12.6869	0.397534	0.285264
12.8251	12.6864	0.398846	0.292222
12.8256	12.6859	0.395313	0.2958
12.8261	12.6854	0.397096	0.297653
12.8265	12.685	0.399097	0.302348
12.827	12.6845	0.395981	0.306265
12.8275	12.684	0.397664	0.309714
12.8279	12.6835	0.395816	0.31303
12.8284	12.6831	0.394558	0.314217
12.8289	12.6826	0.39672	0.316392
12.8294	12.6821	0.397221	0.320724
12.8298	12.6817	0.398245	0.326279
12.8303	12.6812	0.398344	0.327604
12.8308	12.6807	0.39963	0.330913
12.8312	12.6802	0.399016	0.333302
12.8317	12.6798	0.399016	0.335286
12.8322	12.6793	0.398756	0.339338
12.8327	12.6788	0.397456	0.340934
12.8331	12.6784	0.397362	0.341661
12.8336	12.6779	0.398708	0.341642
12.8341	12.6774	0.399109	0.343224
12.8346	12.6769	0.399618	0.344632
12.835	12.6765	0.397319	0.344486
12.8355	12.676	0.397339	0.342482
12.836	12.6755	0.399517	0.341432
12.8364	12.675	0.397676	0.341413
12.8369	12.6745	0.399355	0.341458
12.8374	12.6741	0.396686	0.339862
12.8379	12.6736	0.396104	0.33709
12.8383	12.6731	0.397645	0.335348
12.8388	12.6727	0.39873	0.33656
12.8393	12.6722	0.397608	0.33777
12.8397	12.6717	0.398403	0.333594
12.8402	12.6713	0.39933	0.331039
12.8407	12.6708	0.39889	0.329579
12.8412	12.6703	0.397817	0.326467
12.8416	12.6698	0.398094	0.325993
12.8421	12.6694	0.397064	0.323197
12.8426	12.6689	0.396852	0.319438
12.8431	12.6685	0.397145	0.314824
12.8435	12.668	0.396056	0.313551
12.844	12.6675	0.398207	0.312579
12.8445	12.667	0.39453	0.310076
12.8449	12.6666	0.396665	0.305817
12.8454	12.6661	0.397159	0.304901
12.8459	12.6656	0.397188	0.301922
12.8464	12.6651	0.397367	0.300699
12.8468	12.6647	0.396852	0.298635
12.8473	12.6642	0.395687	0.293006
12.8478	12.6637	0.395955	0.291119
12.8482	12.6632	0.396147	0.291015
12.8487	12.6628	0.397944	0.289087
12.8492	12.6623	0.395775	0.286661
12.8497	12.6619	0.395484	0.283779
12.8501	12.6614	0.395869	0.281598
12.8506	12.6609	0.396931	0.27877
12.8511	12.6604	0.396837	0.278932
12.8516	12.66	0.394805	0.276192
12.852	12.6595	0.393732	0.273656
12.8525	12.659	0.39397	0.2725
12.853	12.6586	0.393777	0.272254
12.8534	12.6581	0.394851	0.272999
12.8539	12.6576	0.393101	0.271789
12.8544	12.6571	0.395012	0.270013
12.8549	12.6567	0.395789	0.269834
12.8553	12.6562	0.395456	0.272172
12.8558	12.6557	0.393888	0.272663
12.8563	12.6552	0.395226	0.275089
12.8567	12.6547	0.392907	0.274192
12.8572	12.6543	0.393887	0.274109
12.8577	12.6538	0.394169	0.278669
12.8582	12.6533	0.394153	0.280952
12.8586	12.6529	0.3936	0.282689
12.8591	12.6524	0.394261	0.284807
12.8596	12.6519	0.395573	0.285166
12.8601	12.6515	0.394475	0.29023
12.8605	12.651	0.395188	0.291572
12.861	12.6505	0.395025	0.295373
12.8615	12.65	0.392514	0.295348
12.8619	12.6496	0.394787	0.296046
12.8624	12.6491	0.395073	0.300358
12.8629	12.6486	0.392659	0.303997
12.8634	12.6482	0.391069	0.30509
12.8638	12.6477	0.392574	0.306501
12.8643	12.6472	0.393097	0.307437
12.8648	12.6467	0.390305	0.30937
12.8652	12.6462	0.390353	0.311603
12.8657	12.6458	0.38843	0.311627
12.8662	12.6453	0.388778	0.311303
12.8667	12.6448	0.38995	0.31179
12.8671	12.6443	0.389081	0.315185
12.8676	12.6438	0.391961	0.317188
12.8681	12.6434	0.390406	0.317746
12.8686	12.6429	0.391489	0.31843
12.869	12.6425	0.393649	0.31825
12.8695	12.642	0.392916	0.318233
12.87	12.6415	0.392341	0.320423
12.8704	12.6411	0.392357	0.321158
12.8709	12.6406	0.392155	0.318499
12.8714	12.6401	0.393479	0.31723
12.8719	12.6396	0.391132	0.318729
12.8723	12.6392	0.3919	0.320122
12.8728	12.6387	0.390919	0.317861
12.8733	12.6382	0.391879	0.316465
12.8737	12.6378	0.392926	0.316795
12.8742	12.6373	0.391333	0.315651
12.8747	12.6368	0.39205	0.316793
12.8752	12.6364	0.390615	0.315412
12.8756	12.6359	0.391106	0.314283
12.8761	12.6354	0.392458	0.312865
12.8766	12.6349	0.391188	0.313429
12.8771	12.6344	0.39151	0.313818
12.8775	12.634	0.390561	0.312397
12.878	12.6335	0.389278	0.309824
12.8785	12.633	0.389268	0.309689
12.8789	12.6326	0.390213	0.310796
12.8794	12.6321	0.390071	0.310436
12.8799	12.6316	0.388883	0.311207
12.8804	12.6312	0.391079	0.311512
12.8808	12.6307	0.391367	0.310062
12.8813	12.6302	0.389478	0.31174
12.8818	12.6297	0.391654	0.313864
12.8822	12.6293	0.389974	0.312935
12.8827	12.6288	0.387742	0.309972
12.8832	12.6283	0.391282	0.309849
12.8837	12.6279	0.388586	0.311493
12.8841	12.6274	0.389403	0.313077
12.8846	12.6269	0.388633	0.31137
12.8851	12.6264	0.38814	0.308943
12.8856	12.626	0.387609	0.308801
12.886	12.6255	0.388028	0.308512
12.8865	12.625	0.389832	0.309584
12.887	12.6245	0.388094	0.308134
12.8874	12.624	0.388845	0.306694
12.8879	12.6236	0.39122	0.30531
12.8884	12.6231	0.388748	0.305025
12.8889	12.6226	0.388936	0.306302
12.8893	12.6222	0.388251	0.304795
12.8898	12.6217	0.387091	0.302851
12.8903	12.6212	0.389214	0.301308
12.8907	12.6207	0.386284	0.302562
12.8912	12.6203	0.387135	0.303652
12.8917	12.6198	0.384909	0.301453
12.8922	12.6193	0.386587	0.300556
12.8926	12.6189	0.387591	0.299336
12.8931	12.6184	0.387524	0.300353
12.8936	12.6179	0.385887	0.302438
12.8941	12.6174	0.387404	0.300884
12.8945	12.617	0.386655	0.299345
12.895	12.6165	0.38801	0.299367
12.8955	12.616	0.387978	0.301416
12.8959	12.6155	0.386717	0.301876
12.8964	12.6151	0.38461	0.299264
12.8969	12.6146	0.385522	0.297319
12.8974	12.6141	0.386626	0.298149
12.8978	12.6136	0.383929	0.296444
12.8983	12.6132	0.384045	0.297273
12.8988	12.6127	0.384154	0.296987
