# 1304     AichiSR QXAFS
# Start     : 8.9544
# End       : 9.0544
# Dir       : Backward
# Points    : 300
# ScanTime  : 1.01549
# Date      : 13.04.23 22:20
# Ring Cur. : 25.5[mA]
12.7557	12.6117	0.299037	0.229605
12.7562	12.6122	0.297219	0.22716
12.7566	12.6126	0.300135	0.22942
12.7571	12.6131	0.299045	0.23194
12.7576	12.6136	0.298725	0.233421
12.7581	12.614	0.30031	0.233493
12.7585	12.6145	0.301205	0.232729
12.759	12.615	0.300306	0.231319
12.7595	12.6155	0.301932	0.2343
12.7599	12.616	0.304549	0.237263
12.7604	12.6164	0.302383	0.236825
12.7609	12.6169	0.300134	0.232849
12.7614	12.6174	0.302905	0.234004
12.7618	12.6179	0.302568	0.237984
12.7623	12.6183	0.301583	0.235763
12.7628	12.6188	0.302539	0.236614
12.7632	12.6193	0.302266	0.235847
12.7637	12.6197	0.302907	0.234555
12.7642	12.6202	0.302193	0.235519
12.7647	12.6207	0.303753	0.238732
12.7651	12.6212	0.303146	0.237631
12.7656	12.6216	0.299463	0.233307
12.7661	12.6221	0.30444	0.237477
12.7666	12.6226	0.304386	0.2381
12.767	12.623	0.303152	0.23902
12.7675	12.6235	0.300976	0.23825
12.768	12.624	0.303417	0.240181
12.7684	12.6245	0.304617	0.238806
12.7689	12.6249	0.301755	0.238863
12.7694	12.6254	0.304893	0.244713
12.7699	12.6259	0.303945	0.243521
12.7703	12.6264	0.302505	0.240736
12.7708	12.6269	0.306181	0.242688
12.7713	12.6273	0.305493	0.244333
12.7717	12.6278	0.304031	0.244684
12.7722	12.6283	0.304346	0.24596
12.7727	12.6288	0.304915	0.242897
12.7732	12.6292	0.305064	0.243276
12.7736	12.6297	0.303255	0.244246
12.7741	12.6301	0.305681	0.245624
12.7746	12.6306	0.303555	0.245705
12.7751	12.6311	0.30497	0.243691
12.7755	12.6316	0.306726	0.244153
12.776	12.632	0.30481	0.243963
12.7765	12.6325	0.306556	0.24608
12.7769	12.633	0.305828	0.245444
12.7774	12.6334	0.304854	0.242865
12.7779	12.6339	0.306292	0.243419
12.7784	12.6344	0.306557	0.245461
12.7788	12.6348	0.307871	0.246824
12.7793	12.6353	0.307517	0.246451
12.7798	12.6358	0.305639	0.244533
12.7802	12.6363	0.308819	0.246595
12.7807	12.6368	0.307468	0.247652
12.7812	12.6372	0.304904	0.248052
12.7817	12.6377	0.308047	0.248772
12.7821	12.6382	0.307811	0.248954
12.7826	12.6386	0.308251	0.247657
12.7831	12.6391	0.306239	0.250108
12.7836	12.6396	0.309796	0.252633
12.784	12.64	0.307126	0.251492
12.7845	12.6405	0.305807	0.249121
12.785	12.641	0.30999	0.251084
12.7854	12.6415	0.307682	0.251527
12.7859	12.6419	0.306395	0.251283
12.7864	12.6424	0.307159	0.251744
12.7869	12.6428	0.308228	0.250352
12.7873	12.6433	0.307718	0.249528
12.7878	12.6438	0.305959	0.250122
12.7883	12.6442	0.308718	0.251234
12.7887	12.6447	0.307472	0.249766
12.7892	12.6452	0.303768	0.245343
12.7897	12.6457	0.306964	0.246199
12.7902	12.6462	0.307778	0.24792
12.7906	12.6466	0.306306	0.246825
12.7911	12.6471	0.308431	0.245462
12.7916	12.6476	0.308588	0.243587
12.7921	12.6481	0.309113	0.242612
12.7925	12.6486	0.308617	0.241895
12.793	12.649	0.309713	0.241516
12.7935	12.6495	0.30954	0.23939
12.7939	12.65	0.307376	0.235047
12.7944	12.6504	0.311477	0.235294
12.7949	12.6509	0.312011	0.234454
12.7954	12.6514	0.307982	0.232574
12.7958	12.6519	0.310681	0.230577
12.7963	12.6523	0.311053	0.228076
12.7968	12.6528	0.311505	0.225558
12.7972	12.6533	0.310662	0.225223
12.7977	12.6537	0.312998	0.225816
12.7982	12.6542	0.311316	0.221908
12.7987	12.6547	0.31032	0.218875
12.7991	12.6552	0.312766	0.217936
12.7996	12.6556	0.313012	0.218337
12.8001	12.6561	0.310115	0.216918
12.8006	12.6566	0.312356	0.215528
12.801	12.6571	0.312604	0.214368
12.8015	12.6576	0.311527	0.214721
12.802	12.658	0.312814	0.216287
12.8024	12.6585	0.312006	0.216766
12.8029	12.659	0.312551	0.216797
12.8034	12.6594	0.31211	0.215444
12.8039	12.6599	0.313256	0.218066
12.8043	12.6604	0.311973	0.219459
12.8048	12.6608	0.311776	0.220834
12.8053	12.6613	0.313564	0.222624
12.8057	12.6618	0.313413	0.221136
12.8062	12.6622	0.313063	0.223623
12.8067	12.6627	0.313435	0.226314
12.8072	12.6632	0.314284	0.229521
12.8076	12.6636	0.313408	0.229189
12.8081	12.6641	0.310364	0.229571
12.8086	12.6646	0.314289	0.232896
12.8091	12.6651	0.314608	0.235826
12.8095	12.6655	0.315657	0.236632
12.81	12.666	0.313113	0.237435
12.8105	12.6665	0.314411	0.239897
12.8109	12.667	0.313914	0.241366
12.8114	12.6674	0.312658	0.244774
12.8119	12.6679	0.316047	0.248631
12.8124	12.6684	0.314551	0.248722
12.8128	12.6689	0.313142	0.248209
12.8133	12.6693	0.315799	0.251465
12.8138	12.6698	0.314314	0.255994
12.8142	12.6702	0.312714	0.256599
12.8147	12.6707	0.314327	0.256776
12.8152	12.6712	0.316201	0.260048
12.8157	12.6717	0.313105	0.258703
12.8161	12.6721	0.313553	0.262915
12.8166	12.6726	0.316045	0.267658
12.8171	12.6731	0.315368	0.266444
12.8176	12.6735	0.313886	0.265257
12.818	12.674	0.316119	0.268659
12.8185	12.6745	0.316623	0.269937
12.819	12.675	0.313934	0.270743
12.8194	12.6754	0.314837	0.27125
12.8199	12.6759	0.317327	0.271645
12.8204	12.6764	0.314405	0.271183
12.8209	12.6769	0.315775	0.272616
12.8213	12.6774	0.315458	0.274979
12.8218	12.6778	0.315512	0.270665
12.8223	12.6783	0.315407	0.272063
12.8227	12.6788	0.317748	0.271883
12.8232	12.6792	0.315028	0.271125
12.8237	12.6797	0.315166	0.270451
12.8242	12.6802	0.317703	0.269733
12.8246	12.6807	0.317943	0.267385
12.8251	12.6811	0.315268	0.26386
12.8256	12.6816	0.31371	0.262752
12.8261	12.6821	0.317171	0.262892
12.8265	12.6825	0.316666	0.257437
12.827	12.683	0.315215	0.254146
12.8275	12.6835	0.31388	0.251092
12.8279	12.6839	0.31484	0.251996
12.8284	12.6844	0.315086	0.248894
12.8289	12.6849	0.316064	0.245402
12.8294	12.6854	0.315176	0.242766
12.8298	12.6859	0.316047	0.241117
12.8303	12.6863	0.31588	0.238339
12.8308	12.6868	0.316015	0.235062
12.8312	12.6873	0.317169	0.23066
12.8317	12.6878	0.31761	0.227236
12.8322	12.6883	0.31614	0.224092
12.8327	12.6887	0.316496	0.220913
12.8331	12.6892	0.316613	0.220929
12.8336	12.6896	0.318822	0.219002
12.8341	12.6901	0.318421	0.217855
12.8346	12.6906	0.316398	0.217778
12.835	12.6911	0.316261	0.221868
12.8355	12.6915	0.318602	0.227291
12.836	12.692	0.31563	0.227513
12.8364	12.6925	0.318697	0.230601
12.8369	12.6929	0.319665	0.238006
12.8374	12.6934	0.318592	0.242425
12.8379	12.6938	0.317109	0.246873
12.8383	12.6943	0.316316	0.249203
12.8388	12.6948	0.319301	0.252178
12.8393	12.6953	0.318198	0.255335
12.8397	12.6958	0.316171	0.256652
12.8402	12.6962	0.317038	0.258512
12.8407	12.6967	0.316271	0.256966
12.8412	12.6972	0.318383	0.256345
12.8416	12.6977	0.31673	0.254157
12.8421	12.6981	0.317226	0.254722
12.8426	12.6986	0.316256	0.251527
12.8431	12.699	0.31763	0.247722
12.8435	12.6995	0.319322	0.244046
12.844	12.7	0.318159	0.240612
12.8445	12.7004	0.316226	0.237906
12.8449	12.7009	0.315847	0.234838
12.8454	12.7014	0.316304	0.229062
12.8459	12.7019	0.317419	0.226168
12.8464	12.7023	0.317396	0.224654
12.8468	12.7028	0.316725	0.226356
12.8473	12.7033	0.315298	0.223393
12.8478	12.7037	0.316457	0.223813
12.8482	12.7042	0.319798	0.227918
12.8487	12.7047	0.318679	0.231493
12.8492	12.7052	0.31601	0.23695
12.8497	12.7057	0.318527	0.24383
12.8501	12.7062	0.3184	0.251355
12.8506	12.7066	0.317267	0.258153
12.8511	12.7071	0.317905	0.269522
12.8516	12.7076	0.317914	0.283084
12.852	12.7081	0.318985	0.293754
12.8525	12.7085	0.317283	0.304361
12.853	12.709	0.320018	0.320232
12.8534	12.7095	0.320087	0.333024
12.8539	12.7099	0.318052	0.346065
12.8544	12.7104	0.318336	0.36121
12.8549	12.7109	0.318007	0.371425
12.8553	12.7114	0.319303	0.382853
12.8558	12.7118	0.317965	0.396025
12.8563	12.7123	0.318867	0.407202
12.8567	12.7128	0.317884	0.417808
12.8572	12.7132	0.317635	0.425133
12.8577	12.7137	0.318715	0.435147
12.8582	12.7142	0.318085	0.443302
12.8586	12.7146	0.316583	0.450087
12.8591	12.7151	0.317767	0.460531
12.8596	12.7156	0.317425	0.467719
12.8601	12.7161	0.318349	0.475306
12.8605	12.7166	0.316923	0.484907
12.861	12.717	0.318403	0.494957
12.8615	12.7175	0.315998	0.499426
12.8619	12.718	0.317194	0.502269
12.8624	12.7185	0.317743	0.505257
12.8629	12.7189	0.314967	0.501082
12.8634	12.7194	0.317395	0.500251
12.8638	12.7198	0.316845	0.497778
12.8643	12.7203	0.315955	0.490872
12.8648	12.7208	0.317956	0.489654
12.8652	12.7213	0.315655	0.492701
12.8657	12.7217	0.31582	0.499464
12.8662	12.7222	0.314666	0.511066
12.8667	12.7227	0.315741	0.531466
12.8671	12.7231	0.317234	0.563006
12.8676	12.7236	0.314396	0.60268
12.8681	12.7241	0.313661	0.647442
12.8686	12.7245	0.312169	0.69673
12.869	12.725	0.312463	0.741871
12.8695	12.7255	0.314187	0.786561
12.87	12.726	0.317732	0.833956
12.8704	12.7264	0.314135	0.853045
12.8709	12.7269	0.314233	0.870112
12.8714	12.7274	0.314311	0.885526
12.8719	12.7279	0.317283	0.903014
12.8723	12.7283	0.315707	0.907421
12.8728	12.7288	0.316199	0.914684
12.8733	12.7293	0.315513	0.924081
12.8737	12.7297	0.317332	0.927092
12.8742	12.7302	0.318484	0.928774
12.8747	12.7307	0.316263	0.934192
12.8752	12.7312	0.315934	0.937927
12.8756	12.7316	0.316135	0.937449
12.8761	12.7321	0.316699	0.938886
12.8766	12.7326	0.318363	0.945928
12.8771	12.733	0.315998	0.948497
12.8775	12.7335	0.315553	0.946367
12.878	12.734	0.317866	0.955848
12.8785	12.7345	0.317224	0.953575
12.8789	12.7349	0.319346	0.95358
12.8794	12.7354	0.317368	0.956996
12.8799	12.7359	0.319124	0.96258
12.8804	12.7364	0.317113	0.957839
12.8808	12.7369	0.316605	0.957418
12.8813	12.7374	0.321146	0.964715
12.8818	12.7378	0.319615	0.962963
12.8822	12.7383	0.318712	0.960893
12.8827	12.7388	0.318841	0.969397
12.8832	12.7392	0.320144	0.968802
12.8837	12.7397	0.321598	0.965085
12.8841	12.7402	0.320841	0.97152
12.8846	12.7406	0.320921	0.97489
12.8851	12.7411	0.320591	0.971424
12.8856	12.7416	0.321735	0.972395
12.886	12.7421	0.325708	0.979661
12.8865	12.7425	0.322146	0.976259
12.887	12.743	0.321023	0.977054
12.8874	12.7435	0.323345	0.978788
12.8879	12.7439	0.320782	0.97747
12.8884	12.7444	0.324736	0.980617
12.8889	12.7449	0.323763	0.984741
12.8893	12.7454	0.321783	0.981454
12.8898	12.7458	0.320707	0.978619
12.8903	12.7463	0.322699	0.984645
12.8907	12.7468	0.326591	0.989296
12.8912	12.7473	0.323277	0.984642
12.8917	12.7477	0.323291	0.984234
12.8922	12.7482	0.324453	0.989724
12.8926	12.7487	0.324639	0.985629
12.8931	12.7491	0.327359	0.987907
12.8936	12.7496	0.32671	0.993989
12.8941	12.7501	0.324903	0.991709
12.8945	12.7505	0.321623	0.985503
12.895	12.751	0.324393	0.989238
12.8955	12.7515	0.326602	0.994363
12.8959	12.752	0.325231	0.990941
12.8964	12.7524	0.322997	0.990412
12.8969	12.7529	0.324725	0.992597
12.8974	12.7533	0.325128	0.991252
12.8978	12.7538	0.327695	0.995212
12.8983	12.7543	0.327316	0.997258
12.8988	12.7547	0.326969	0.998607
