# 1304     AichiSR QXAFS
# Start     : 8.9544
# End       : 9.0544
# Dir       : Forward
# Points    : 300
# ScanTime  : 1.01549
# Date      : 13.04.23 22:27
# Ring Cur. : 25.4[mA]
12.7557	12.7557	0.396821	1.2067
12.7562	12.7553	0.396686	1.20505
12.7566	12.7548	0.39628	1.20902
12.7571	12.7543	0.395466	1.20862
12.7576	12.7538	0.395996	1.20573
12.7581	12.7534	0.395363	1.20163
12.7585	12.7529	0.395381	1.205
12.759	12.7524	0.396128	1.20515
12.7595	12.752	0.395321	1.20456
12.7599	12.7515	0.395353	1.19977
12.7604	12.7511	0.395683	1.20295
12.7609	12.7506	0.395103	1.202
12.7614	12.7501	0.395564	1.20724
12.7618	12.7496	0.393549	1.20338
12.7623	12.7492	0.393184	1.20048
12.7628	12.7487	0.397193	1.20295
12.7632	12.7483	0.399033	1.21695
12.7637	12.7478	0.39571	1.20535
12.7642	12.7473	0.393158	1.20014
12.7647	12.7468	0.394902	1.1959
12.7651	12.7464	0.394747	1.19656
12.7656	12.7459	0.394001	1.1961
12.7661	12.7454	0.394151	1.20071
12.7666	12.7449	0.393514	1.1988
12.767	12.7444	0.3939	1.19554
12.7675	12.744	0.395137	1.19504
12.768	12.7435	0.394024	1.19484
12.7684	12.743	0.394422	1.19542
12.7689	12.7426	0.39395	1.1949
12.7694	12.7421	0.392297	1.19299
12.7699	12.7416	0.393523	1.19135
12.7703	12.7412	0.394696	1.19287
12.7708	12.7407	0.393134	1.1955
12.7713	12.7402	0.392151	1.1936
12.7717	12.7397	0.392828	1.18949
12.7722	12.7393	0.395077	1.18909
12.7727	12.7388	0.394485	1.1921
12.7732	12.7383	0.393536	1.19078
12.7736	12.7379	0.393672	1.18895
12.7741	12.7374	0.392829	1.18797
12.7746	12.7369	0.395556	1.18943
12.7751	12.7364	0.394474	1.18759
12.7755	12.736	0.395175	1.18826
12.776	12.7355	0.394883	1.18807
12.7765	12.735	0.393613	1.18341
12.7769	12.7345	0.394516	1.1823
12.7774	12.734	0.395249	1.18429
12.7779	12.7336	0.3931	1.1824
12.7784	12.7331	0.394006	1.18112
12.7788	12.7326	0.394522	1.17571
12.7793	12.7322	0.395776	1.17577
12.7798	12.7317	0.394264	1.17378
12.7802	12.7312	0.393101	1.17315
12.7807	12.7307	0.394462	1.17117
12.7812	12.7302	0.39292	1.16448
12.7817	12.7298	0.395303	1.16265
12.7821	12.7293	0.394594	1.15906
12.7826	12.7289	0.395519	1.15487
12.7831	12.7284	0.393547	1.14685
12.7836	12.7279	0.39366	1.13875
12.784	12.7274	0.395031	1.12908
12.7845	12.727	0.393128	1.11717
12.785	12.7265	0.392783	1.10113
12.7854	12.726	0.39122	1.08048
12.7859	12.7255	0.388888	1.04622
12.7864	12.7251	0.390837	1.01115
12.7869	12.7246	0.389578	0.969643
12.7873	12.7241	0.389502	0.914905
12.7878	12.7236	0.389921	0.850695
12.7883	12.7232	0.392317	0.789356
12.7887	12.7227	0.395107	0.736219
12.7892	12.7222	0.394469	0.689223
12.7897	12.7218	0.395323	0.656938
12.7902	12.7213	0.39523	0.633434
12.7906	12.7208	0.393755	0.616336
12.7911	12.7204	0.396389	0.611255
12.7916	12.7199	0.396421	0.612657
12.7921	12.7194	0.395405	0.616345
12.7925	12.719	0.394874	0.620505
12.793	12.7185	0.393809	0.622948
12.7935	12.718	0.39644	0.626629
12.7939	12.7176	0.394919	0.628091
12.7944	12.7171	0.396416	0.625184
12.7949	12.7166	0.394892	0.619464
12.7954	12.7161	0.394521	0.608938
12.7958	12.7157	0.397861	0.59926
12.7963	12.7152	0.396913	0.589117
12.7968	12.7147	0.395776	0.579208
12.7972	12.7142	0.39441	0.567687
12.7977	12.7137	0.393743	0.555328
12.7982	12.7133	0.395898	0.544666
12.7987	12.7128	0.396149	0.536799
12.7991	12.7123	0.39585	0.527519
12.7996	12.7119	0.396377	0.51535
12.8001	12.7114	0.395323	0.4979
12.8006	12.7109	0.39631	0.484538
12.801	12.7104	0.395262	0.473463
12.8015	12.71	0.396273	0.459615
12.802	12.7095	0.396425	0.441453
12.8024	12.7091	0.394598	0.421093
12.8029	12.7086	0.397778	0.407547
12.8034	12.7081	0.397291	0.392894
12.8039	12.7076	0.39771	0.376928
12.8043	12.7072	0.396256	0.361135
12.8048	12.7067	0.39521	0.344015
12.8053	12.7062	0.396141	0.33075
12.8057	12.7057	0.39571	0.320542
12.8062	12.7052	0.395085	0.31075
12.8067	12.7048	0.395777	0.298836
12.8072	12.7043	0.396233	0.289918
12.8076	12.7038	0.397069	0.28659
12.8081	12.7033	0.395474	0.281091
12.8086	12.7029	0.395785	0.280655
12.8091	12.7024	0.396549	0.278881
12.8095	12.7019	0.394691	0.278126
12.81	12.7015	0.397577	0.280539
12.8105	12.701	0.396232	0.285587
12.8109	12.7005	0.396441	0.289017
12.8114	12.7	0.394641	0.29283
12.8119	12.6996	0.396028	0.296599
12.8124	12.6991	0.397555	0.3001
12.8128	12.6986	0.395602	0.306582
12.8133	12.6982	0.394021	0.310042
12.8138	12.6977	0.396878	0.314337
12.8142	12.6972	0.394699	0.314722
12.8147	12.6968	0.39509	0.317536
12.8152	12.6963	0.396531	0.321046
12.8157	12.6958	0.39639	0.322492
12.8161	12.6953	0.394549	0.321143
12.8166	12.6948	0.395167	0.318869
12.8171	12.6944	0.396553	0.317012
12.8176	12.6939	0.395999	0.314659
12.818	12.6934	0.394755	0.309521
12.8185	12.693	0.394251	0.304406
12.819	12.6925	0.393957	0.297471
12.8194	12.692	0.396061	0.290763
12.8199	12.6916	0.395505	0.286221
12.8204	12.6911	0.394892	0.283202
12.8209	12.6906	0.393785	0.276758
12.8213	12.6902	0.39363	0.27255
12.8218	12.6897	0.395921	0.270965
12.8223	12.6892	0.395397	0.27196
12.8227	12.6888	0.395332	0.272727
12.8232	12.6883	0.393674	0.274001
12.8237	12.6878	0.394254	0.275423
12.8242	12.6874	0.39562	0.278735
12.8246	12.6869	0.393499	0.284312
12.8251	12.6864	0.393121	0.288451
12.8256	12.6859	0.392873	0.290691
12.8261	12.6854	0.39189	0.293844
12.8265	12.685	0.391912	0.298456
12.827	12.6845	0.392923	0.302832
12.8275	12.684	0.392352	0.307904
12.8279	12.6835	0.392355	0.308764
12.8284	12.6831	0.391785	0.31105
12.8289	12.6826	0.39309	0.313681
12.8294	12.6821	0.392592	0.319205
12.8298	12.6817	0.391893	0.322774
12.8303	12.6812	0.393876	0.324752
12.8308	12.6807	0.392033	0.326416
12.8312	12.6802	0.396582	0.330292
12.8317	12.6798	0.39371	0.333706
12.8322	12.6793	0.393472	0.336763
12.8327	12.6788	0.39544	0.336024
12.8331	12.6784	0.392952	0.337479
12.8336	12.6779	0.394653	0.338885
12.8341	12.6774	0.395824	0.339793
12.8346	12.6769	0.393053	0.34155
12.835	12.6765	0.394206	0.340137
12.8355	12.676	0.393975	0.338683
12.836	12.6755	0.394905	0.338889
12.8364	12.675	0.393609	0.338627
12.8369	12.6745	0.395278	0.338765
12.8374	12.674	0.393611	0.336879
12.8379	12.6736	0.391864	0.333869
12.8383	12.6731	0.394449	0.332106
12.8388	12.6726	0.394771	0.333845
12.8393	12.6722	0.393986	0.331911
12.8397	12.6717	0.392502	0.328327
12.8402	12.6713	0.392926	0.325786
12.8407	12.6708	0.394814	0.324696
12.8412	12.6703	0.392683	0.323979
12.8416	12.6698	0.392603	0.321984
12.8421	12.6694	0.392741	0.318918
12.8426	12.6689	0.391905	0.314258
12.8431	12.6684	0.393483	0.313599
12.8435	12.668	0.392158	0.31306
12.844	12.6675	0.393667	0.308725
12.8445	12.667	0.392176	0.305386
12.8449	12.6665	0.390788	0.302305
12.8454	12.6661	0.392861	0.301481
12.8459	12.6656	0.393036	0.299737
12.8464	12.6651	0.39017	0.29764
12.8468	12.6646	0.390222	0.293717
12.8473	12.6642	0.391829	0.2903
12.8478	12.6637	0.39232	0.288905
12.8482	12.6632	0.392428	0.288157
12.8487	12.6628	0.39077	0.28624
12.8492	12.6623	0.390015	0.283308
12.8497	12.6618	0.39207	0.280683
12.8501	12.6614	0.391632	0.279669
12.8506	12.6609	0.391471	0.278483
12.8511	12.6604	0.389315	0.277589
12.8516	12.6599	0.390973	0.275035
12.852	12.6595	0.391325	0.271734
12.8525	12.659	0.391004	0.269859
12.853	12.6586	0.389676	0.27105
12.8534	12.6581	0.389791	0.270441
12.8539	12.6576	0.390435	0.26871
12.8544	12.6571	0.389523	0.266702
12.8549	12.6567	0.39049	0.268586
12.8553	12.6562	0.391286	0.268475
12.8558	12.6557	0.390129	0.270876
12.8563	12.6552	0.391091	0.26994
12.8567	12.6547	0.390398	0.271867
12.8572	12.6543	0.391021	0.271839
12.8577	12.6538	0.391951	0.278052
12.8582	12.6533	0.390656	0.27912
12.8586	12.6528	0.389554	0.279042
12.8591	12.6524	0.390768	0.280285
12.8596	12.6519	0.39152	0.283211
12.8601	12.6515	0.39058	0.285653
12.8605	12.651	0.390837	0.289476
12.861	12.6505	0.389573	0.291267
12.8615	12.65	0.391493	0.292362
12.8619	12.6495	0.390712	0.29445
12.8624	12.6491	0.390585	0.297539
12.8629	12.6486	0.388775	0.301283
12.8634	12.6481	0.387739	0.301005
12.8638	12.6477	0.389865	0.302363
12.8643	12.6472	0.390062	0.304915
12.8648	12.6467	0.387948	0.307543
12.8652	12.6462	0.38479	0.3075
12.8657	12.6457	0.386189	0.306326
12.8662	12.6453	0.385986	0.307025
12.8667	12.6448	0.385668	0.309879
12.8671	12.6443	0.385841	0.311586
12.8676	12.6438	0.385835	0.313364
12.8681	12.6434	0.385903	0.314049
12.8686	12.6429	0.387469	0.313645
12.869	12.6424	0.387913	0.315776
12.8695	12.642	0.388185	0.317187
12.87	12.6415	0.387796	0.317479
12.8704	12.641	0.387592	0.316393
12.8709	12.6406	0.389591	0.31474
12.8714	12.6401	0.388306	0.316492
12.8719	12.6396	0.388674	0.317472
12.8723	12.6392	0.386994	0.317125
12.8728	12.6387	0.387851	0.313975
12.8733	12.6382	0.387993	0.313142
12.8737	12.6378	0.388431	0.312028
12.8742	12.6373	0.388918	0.313093
12.8747	12.6368	0.385355	0.31297
12.8752	12.6363	0.385372	0.311374
12.8756	12.6359	0.387134	0.309064
12.8761	12.6354	0.387882	0.308755
12.8766	12.6349	0.38673	0.311011
12.8771	12.6344	0.386736	0.309555
12.8775	12.634	0.385542	0.307236
12.878	12.6335	0.38753	0.308359
12.8785	12.633	0.387868	0.307727
12.8789	12.6326	0.385697	0.308803
12.8794	12.6321	0.384735	0.308397
12.8799	12.6316	0.387263	0.30672
12.8804	12.6312	0.385794	0.305957
12.8808	12.6307	0.387188	0.306394
12.8813	12.6302	0.38762	0.309294
12.8818	12.6297	0.385053	0.30893
12.8822	12.6293	0.383902	0.306154
12.8827	12.6288	0.385892	0.307003
12.8832	12.6283	0.384843	0.308133
12.8837	12.6279	0.385941	0.309106
12.8841	12.6274	0.383075	0.308561
12.8846	12.6269	0.385449	0.306773
12.8851	12.6264	0.384269	0.306328
12.8856	12.626	0.385414	0.305716
12.886	12.6255	0.385732	0.306865
12.8865	12.625	0.384158	0.306535
12.887	12.6245	0.383872	0.303263
12.8874	12.624	0.384799	0.301919
12.8879	12.6236	0.383356	0.303361
12.8884	12.6231	0.383544	0.303147
12.8889	12.6226	0.38238	0.302114
12.8893	12.6222	0.384604	0.299769
12.8898	12.6217	0.384604	0.299566
12.8903	12.6212	0.383033	0.298992
12.8907	12.6207	0.384102	0.300284
12.8912	12.6202	0.381967	0.297654
12.8917	12.6198	0.382358	0.296645
12.8922	12.6193	0.383381	0.296371
12.8926	12.6189	0.382921	0.297412
12.8931	12.6184	0.382473	0.29834
12.8936	12.6179	0.381337	0.296508
12.8941	12.6174	0.380694	0.296464
12.8945	12.617	0.381872	0.295433
12.895	12.6165	0.381124	0.296954
12.8955	12.616	0.383392	0.297522
12.8959	12.6155	0.380909	0.296339
12.8964	12.615	0.379585	0.295204
12.8969	12.6146	0.38161	0.295085
12.8974	12.6141	0.381504	0.295835
12.8978	12.6136	0.381376	0.294984
12.8983	12.6132	0.379478	0.294503
12.8988	12.6127	0.379137	0.291782
