# 1304     AichiSR QXAFS
# Start     : 8.9544
# End       : 9.0544
# Dir       : Backward
# Points    : 300
# ScanTime  : 1.01549
# Date      : 13.04.23 22:25
# Ring Cur. : 25.4[mA]
12.7557	12.6118	0.300559	0.231958
12.7562	12.6122	0.297627	0.228594
12.7566	12.6127	0.301232	0.230395
12.7571	12.6131	0.302295	0.233158
12.7576	12.6136	0.299795	0.232244
12.7581	12.6141	0.300121	0.234033
12.7585	12.6146	0.302686	0.234919
12.759	12.615	0.301797	0.232664
12.7595	12.6155	0.303129	0.234677
12.7599	12.616	0.304506	0.23729
12.7604	12.6165	0.303538	0.237886
12.7609	12.6169	0.301591	0.234959
12.7614	12.6174	0.302522	0.234905
12.7618	12.6179	0.304206	0.235701
12.7623	12.6184	0.302569	0.23555
12.7628	12.6188	0.302195	0.237673
12.7632	12.6193	0.302043	0.235653
12.7637	12.6198	0.300857	0.234356
12.7642	12.6202	0.302123	0.234709
12.7647	12.6207	0.303581	0.23718
12.7651	12.6212	0.302652	0.239042
12.7656	12.6217	0.301074	0.234894
12.7661	12.6221	0.304761	0.236985
12.7666	12.6226	0.304972	0.238452
12.767	12.6231	0.304463	0.238953
12.7675	12.6235	0.302302	0.239959
12.768	12.624	0.304553	0.239741
12.7684	12.6245	0.303756	0.239441
12.7689	12.625	0.301852	0.238638
12.7694	12.6254	0.304632	0.24301
12.7699	12.6259	0.302635	0.241202
12.7703	12.6264	0.30152	0.24135
12.7708	12.6269	0.303018	0.241202
12.7713	12.6274	0.305181	0.243276
12.7717	12.6278	0.30308	0.242743
12.7722	12.6283	0.302453	0.243638
12.7727	12.6288	0.30478	0.243549
12.7732	12.6292	0.303237	0.242718
12.7736	12.6297	0.303733	0.242827
12.7741	12.6302	0.305047	0.245889
12.7746	12.6307	0.302776	0.243962
12.7751	12.6311	0.302447	0.241521
12.7755	12.6316	0.304815	0.24378
12.776	12.6321	0.305974	0.242132
12.7765	12.6325	0.302836	0.243133
12.7769	12.633	0.302517	0.242704
12.7774	12.6335	0.305619	0.243391
12.7779	12.6339	0.30494	0.242314
12.7784	12.6344	0.302973	0.243363
12.7788	12.6349	0.305534	0.244559
12.7793	12.6354	0.304227	0.244425
12.7798	12.6358	0.304789	0.243148
12.7802	12.6363	0.305972	0.244354
12.7807	12.6368	0.30637	0.245449
12.7812	12.6373	0.303233	0.244714
12.7817	12.6377	0.305255	0.247397
12.7821	12.6382	0.306534	0.246547
12.7826	12.6387	0.305319	0.246132
12.7831	12.6391	0.304314	0.247114
12.7836	12.6396	0.306058	0.24923
12.784	12.6401	0.303476	0.24892
12.7845	12.6405	0.302794	0.246743
12.785	12.641	0.306762	0.249408
12.7854	12.6415	0.306384	0.250653
12.7859	12.642	0.302752	0.248034
12.7864	12.6424	0.30503	0.249664
12.7869	12.6429	0.305734	0.24954
12.7873	12.6433	0.305495	0.246475
12.7878	12.6438	0.304585	0.247775
12.7883	12.6443	0.305984	0.248176
12.7887	12.6448	0.303569	0.246945
12.7892	12.6452	0.301762	0.243029
12.7897	12.6457	0.305805	0.245614
12.7902	12.6462	0.308744	0.246368
12.7906	12.6467	0.303302	0.243065
12.7911	12.6472	0.303079	0.242801
12.7916	12.6476	0.304094	0.240549
12.7921	12.6481	0.306376	0.239489
12.7925	12.6486	0.305907	0.237698
12.793	12.6491	0.305771	0.239068
12.7935	12.6495	0.306043	0.235188
12.7939	12.65	0.304653	0.231971
12.7944	12.6505	0.309467	0.233061
12.7949	12.6509	0.308657	0.231955
12.7954	12.6514	0.306368	0.228632
12.7958	12.6519	0.306607	0.227415
12.7963	12.6524	0.308849	0.225263
12.7968	12.6528	0.308712	0.222663
12.7972	12.6533	0.308423	0.221783
12.7977	12.6538	0.307788	0.222396
12.7982	12.6542	0.306681	0.219761
12.7987	12.6547	0.306932	0.21622
12.7991	12.6552	0.310094	0.217141
12.7996	12.6557	0.310022	0.217477
12.8001	12.6562	0.307343	0.215294
12.8006	12.6566	0.307522	0.213243
12.801	12.6571	0.309422	0.212967
12.8015	12.6576	0.311652	0.213047
12.802	12.6581	0.310721	0.2133
12.8024	12.6585	0.310633	0.214609
12.8029	12.659	0.309597	0.214448
12.8034	12.6595	0.308975	0.214222
12.8039	12.6599	0.312892	0.215912
12.8043	12.6604	0.311271	0.219099
12.8048	12.6609	0.310066	0.221262
12.8053	12.6614	0.311048	0.222097
12.8057	12.6618	0.311644	0.222557
12.8062	12.6623	0.31299	0.223601
12.8067	12.6627	0.311648	0.225747
12.8072	12.6632	0.313202	0.23059
12.8076	12.6637	0.312415	0.229922
12.8081	12.6641	0.313661	0.229415
12.8086	12.6646	0.315433	0.232823
12.8091	12.6651	0.31472	0.236258
12.8095	12.6656	0.313179	0.236484
12.81	12.666	0.314665	0.238567
12.8105	12.6665	0.313767	0.240656
12.8109	12.667	0.314607	0.240491
12.8114	12.6675	0.312695	0.242808
12.8119	12.668	0.314043	0.248419
12.8124	12.6684	0.313042	0.249184
12.8128	12.6689	0.313183	0.248142
12.8133	12.6693	0.316693	0.25265
12.8138	12.6698	0.318425	0.256709
12.8142	12.6703	0.314629	0.258029
12.8147	12.6707	0.314431	0.257711
12.8152	12.6712	0.316462	0.260986
12.8157	12.6717	0.318482	0.263309
12.8161	12.6722	0.315515	0.264866
12.8166	12.6726	0.316122	0.267627
12.8171	12.6731	0.31616	0.267903
12.8176	12.6736	0.315974	0.267406
12.818	12.674	0.317889	0.269029
12.8185	12.6745	0.318698	0.271464
12.819	12.675	0.313859	0.270593
12.8194	12.6755	0.314746	0.270991
12.8199	12.676	0.318535	0.271264
12.8204	12.6764	0.31768	0.272912
12.8209	12.6769	0.316736	0.273859
12.8213	12.6774	0.318104	0.276436
12.8218	12.6779	0.317711	0.275349
12.8223	12.6783	0.315753	0.271805
12.8227	12.6788	0.319385	0.273884
12.8232	12.6793	0.320226	0.275215
12.8237	12.6797	0.315962	0.272815
12.8242	12.6802	0.316559	0.270107
12.8246	12.6807	0.319665	0.267963
12.8251	12.6812	0.319152	0.266366
12.8256	12.6816	0.319043	0.263197
12.8261	12.6821	0.316764	0.262502
12.8265	12.6826	0.317641	0.259036
12.827	12.683	0.31708	0.255025
12.8275	12.6835	0.319696	0.254046
12.8279	12.684	0.317321	0.252557
12.8284	12.6845	0.31798	0.250875
12.8289	12.6849	0.317855	0.246885
12.8294	12.6854	0.318524	0.243439
12.8298	12.6859	0.319678	0.241387
12.8303	12.6864	0.319492	0.238808
12.8308	12.6869	0.318919	0.236115
12.8312	12.6873	0.320317	0.231938
12.8317	12.6878	0.319369	0.227967
12.8322	12.6883	0.32143	0.225738
12.8327	12.6887	0.320609	0.224212
12.8331	12.6892	0.31941	0.223211
12.8336	12.6897	0.320483	0.220924
12.8341	12.6901	0.321223	0.220914
12.8346	12.6906	0.321447	0.221159
12.835	12.6911	0.320384	0.225193
12.8355	12.6916	0.320323	0.228849
12.836	12.692	0.321035	0.231944
12.8364	12.6925	0.321436	0.234571
12.8369	12.6929	0.323004	0.242556
12.8374	12.6934	0.322556	0.246094
12.8379	12.6939	0.319123	0.249531
12.8383	12.6944	0.320398	0.252187
12.8388	12.6948	0.32276	0.255745
12.8393	12.6953	0.321202	0.257796
12.8397	12.6958	0.318935	0.260267
12.8402	12.6963	0.321654	0.261935
12.8407	12.6967	0.32106	0.2591
12.8412	12.6972	0.320079	0.258815
12.8416	12.6977	0.321253	0.258501
12.8421	12.6982	0.322117	0.258248
12.8426	12.6986	0.319072	0.254083
12.8431	12.6991	0.319448	0.250022
12.8435	12.6995	0.322325	0.246357
12.844	12.7	0.322418	0.242889
12.8445	12.7005	0.320951	0.240919
12.8449	12.701	0.320978	0.238026
12.8454	12.7014	0.319877	0.231393
12.8459	12.7019	0.319383	0.226933
12.8464	12.7024	0.322366	0.228228
12.8468	12.7028	0.322116	0.229162
12.8473	12.7033	0.319416	0.225382
12.8478	12.7038	0.319933	0.226408
12.8482	12.7043	0.324703	0.231182
12.8487	12.7047	0.322538	0.234031
12.8492	12.7052	0.322779	0.241698
12.8497	12.7057	0.322369	0.249594
12.8501	12.7062	0.321009	0.255045
12.8506	12.7067	0.322297	0.264006
12.8511	12.7071	0.322435	0.275905
12.8516	12.7076	0.324124	0.290805
12.852	12.7081	0.322756	0.301055
12.8525	12.7086	0.321638	0.310133
12.853	12.709	0.32364	0.326243
12.8534	12.7095	0.324927	0.34235
12.8539	12.71	0.324829	0.355565
12.8544	12.7104	0.323413	0.368785
12.8549	12.7109	0.323209	0.380731
12.8553	12.7114	0.324404	0.391716
12.8558	12.7119	0.325859	0.406468
12.8563	12.7123	0.32522	0.419093
12.8567	12.7128	0.323235	0.427711
12.8572	12.7133	0.32201	0.43318
12.8577	12.7137	0.325678	0.445162
12.8582	12.7142	0.324291	0.45152
12.8586	12.7147	0.32382	0.460536
12.8591	12.7152	0.323569	0.471116
12.8596	12.7156	0.32384	0.475265
12.8601	12.7161	0.322688	0.483879
12.8605	12.7166	0.323385	0.493761
12.861	12.7171	0.325465	0.507908
12.8615	12.7176	0.322071	0.510086
12.8619	12.718	0.323666	0.512191
12.8624	12.7185	0.325619	0.516162
12.8629	12.719	0.323687	0.513588
12.8634	12.7194	0.324015	0.510032
12.8638	12.7199	0.323484	0.507863
12.8643	12.7203	0.321994	0.500152
12.8648	12.7208	0.322169	0.497913
12.8652	12.7213	0.322551	0.502158
12.8657	12.7218	0.323376	0.509479
12.8662	12.7222	0.320686	0.523178
12.8667	12.7227	0.321461	0.543626
12.8671	12.7231	0.323044	0.577009
12.8676	12.7236	0.319527	0.617182
12.8681	12.7241	0.320639	0.668611
12.8686	12.7246	0.320849	0.723676
12.869	12.725	0.316507	0.760648
12.8695	12.7255	0.317886	0.805875
12.87	12.726	0.320555	0.844868
12.8704	12.7265	0.320174	0.871268
12.8709	12.7269	0.319698	0.889191
12.8714	12.7274	0.31983	0.905413
12.8719	12.7279	0.323463	0.918686
12.8723	12.7284	0.321628	0.923579
12.8728	12.7288	0.32411	0.936938
12.8733	12.7293	0.323925	0.941631
12.8737	12.7298	0.321997	0.942613
12.8742	12.7302	0.322845	0.942822
12.8747	12.7307	0.322936	0.951206
12.8752	12.7312	0.323845	0.9597
12.8756	12.7317	0.322442	0.9582
12.8761	12.7321	0.321472	0.954644
12.8766	12.7326	0.323974	0.964931
12.8771	12.7331	0.324353	0.965562
12.8775	12.7335	0.322642	0.967666
12.878	12.734	0.324201	0.973431
12.8785	12.7345	0.324395	0.970092
12.8789	12.735	0.32322	0.969587
12.8794	12.7355	0.323899	0.975997
12.8799	12.7359	0.324153	0.979644
12.8804	12.7364	0.3224	0.974849
12.8808	12.7369	0.322012	0.971215
12.8813	12.7374	0.325642	0.981477
12.8818	12.7379	0.32525	0.978274
12.8822	12.7383	0.321463	0.975756
12.8827	12.7388	0.325128	0.982848
12.8832	12.7393	0.325142	0.980376
12.8837	12.7397	0.325928	0.981654
12.8841	12.7402	0.325299	0.988009
12.8846	12.7407	0.326573	0.988161
12.8851	12.7412	0.324222	0.986846
12.8856	12.7416	0.324994	0.98582
12.886	12.7421	0.327132	0.988005
12.8865	12.7426	0.323993	0.986969
12.887	12.743	0.324746	0.9906
12.8874	12.7435	0.325627	0.991769
12.8879	12.744	0.324017	0.983059
12.8884	12.7444	0.325802	0.987788
12.8889	12.7449	0.326151	0.990939
12.8893	12.7454	0.326373	0.990503
12.8898	12.7459	0.325463	0.989443
12.8903	12.7463	0.325631	0.993451
12.8907	12.7468	0.328727	0.993491
12.8912	12.7473	0.328336	0.997477
12.8917	12.7478	0.327551	0.997823
12.8922	12.7482	0.325892	0.997419
12.8926	12.7487	0.326039	0.993737
12.8931	12.7492	0.32796	0.995951
12.8936	12.7496	0.328186	0.993849
12.8941	12.7501	0.32536	0.996984
12.8945	12.7506	0.326003	0.994297
12.895	12.751	0.32478	0.994201
12.8955	12.7515	0.32903	0.998225
12.8959	12.752	0.326593	0.994538
12.8964	12.7524	0.325058	0.996635
12.8969	12.7529	0.327145	1.00028
12.8974	12.7534	0.327163	0.996251
12.8978	12.7538	0.326091	0.991862
12.8983	12.7543	0.327789	0.998249
12.8988	12.7548	0.32903	1.00546
