# 1304     AichiSR QXAFS
# Start     : 8.9544
# End       : 9.0544
# Dir       : Backward
# Points    : 300
# ScanTime  : 1.01549
# Date      : 13.04.23 22:24
# Ring Cur. : 25.4[mA]
12.7557	12.6118	0.300855	0.229239
12.7562	12.6122	0.300619	0.230668
12.7566	12.6127	0.302713	0.232936
12.7571	12.6131	0.302663	0.232457
12.7576	12.6136	0.301464	0.232048
12.7581	12.6141	0.302585	0.234873
12.7585	12.6145	0.304505	0.236157
12.759	12.615	0.301333	0.235589
12.7595	12.6155	0.303594	0.234923
12.7599	12.616	0.30628	0.236149
12.7604	12.6164	0.303647	0.23546
12.7609	12.6169	0.304218	0.238137
12.7614	12.6174	0.303426	0.236703
12.7618	12.6179	0.303904	0.235979
12.7623	12.6184	0.304476	0.235781
12.7628	12.6188	0.307515	0.239581
12.7632	12.6193	0.306027	0.238339
12.7637	12.6197	0.303541	0.237433
12.7642	12.6202	0.303037	0.235017
12.7647	12.6207	0.305977	0.236553
12.7651	12.6212	0.304508	0.237631
12.7656	12.6217	0.302863	0.238073
12.7661	12.6221	0.303952	0.239009
12.7666	12.6226	0.303324	0.238211
12.767	12.6231	0.308194	0.238882
12.7675	12.6235	0.304929	0.239076
12.768	12.624	0.304041	0.241185
12.7684	12.6245	0.30512	0.241294
12.7689	12.625	0.303218	0.240051
12.7694	12.6254	0.305729	0.241743
12.7699	12.6259	0.304871	0.242557
12.7703	12.6264	0.304146	0.243152
12.7708	12.6269	0.303672	0.242922
12.7713	12.6274	0.303904	0.243035
12.7717	12.6278	0.30775	0.243753
12.7722	12.6283	0.303653	0.245165
12.7727	12.6288	0.305877	0.24725
12.7732	12.6292	0.305413	0.245956
12.7736	12.6297	0.304857	0.243271
12.7741	12.6302	0.308566	0.247273
12.7746	12.6306	0.30818	0.245369
12.7751	12.6311	0.304488	0.244367
12.7755	12.6316	0.306108	0.245629
12.776	12.6321	0.306887	0.244939
12.7765	12.6325	0.307422	0.245575
12.7769	12.633	0.307738	0.24527
12.7774	12.6335	0.306024	0.246746
12.7779	12.6339	0.306533	0.246489
12.7784	12.6344	0.30744	0.244627
12.7788	12.6349	0.310693	0.248483
12.7793	12.6353	0.308737	0.247982
12.7798	12.6358	0.309574	0.247529
12.7802	12.6363	0.309885	0.249778
12.7807	12.6368	0.310112	0.24894
12.7812	12.6373	0.308373	0.248739
12.7817	12.6377	0.310293	0.250872
12.7821	12.6382	0.309364	0.251315
12.7826	12.6387	0.308875	0.251423
12.7831	12.6391	0.308509	0.249946
12.7836	12.6396	0.311493	0.252481
12.784	12.6401	0.310979	0.254658
12.7845	12.6405	0.307927	0.253644
12.785	12.641	0.309834	0.254119
12.7854	12.6415	0.311919	0.253756
12.7859	12.6419	0.311892	0.253721
12.7864	12.6424	0.310357	0.255004
12.7869	12.6429	0.310596	0.25575
12.7873	12.6433	0.309021	0.252853
12.7878	12.6438	0.3102	0.251259
12.7883	12.6443	0.312968	0.252421
12.7887	12.6447	0.311522	0.253038
12.7892	12.6452	0.306229	0.249941
12.7897	12.6457	0.309962	0.249413
12.7902	12.6462	0.309587	0.248243
12.7906	12.6467	0.311001	0.246267
12.7911	12.6471	0.311591	0.248856
12.7916	12.6476	0.313764	0.249955
12.7921	12.6481	0.311039	0.244045
12.7925	12.6486	0.310629	0.241883
12.793	12.649	0.317369	0.243444
12.7935	12.6495	0.315811	0.24296
12.7939	12.65	0.311034	0.24
12.7944	12.6505	0.314354	0.237914
12.7949	12.6509	0.315725	0.23584
12.7954	12.6514	0.316632	0.23405
12.7958	12.6519	0.316872	0.23441
12.7963	12.6524	0.314016	0.232574
12.7968	12.6528	0.315047	0.228925
12.7972	12.6533	0.315127	0.227459
12.7977	12.6537	0.317033	0.226226
12.7982	12.6542	0.316968	0.22537
12.7987	12.6547	0.315813	0.224223
12.7991	12.6552	0.31608	0.220767
12.7996	12.6557	0.316235	0.219427
12.8001	12.6561	0.31687	0.219774
12.8006	12.6566	0.318241	0.220075
12.801	12.6571	0.317322	0.219898
12.8015	12.6576	0.316464	0.217979
12.802	12.6581	0.315808	0.217366
12.8024	12.6585	0.318678	0.219143
12.8029	12.659	0.318862	0.222098
12.8034	12.6595	0.317209	0.221688
12.8039	12.6599	0.318257	0.221186
12.8043	12.6604	0.321115	0.223189
12.8048	12.6609	0.319926	0.224187
12.8053	12.6613	0.318968	0.225907
12.8057	12.6618	0.318497	0.228321
12.8062	12.6623	0.31875	0.227703
12.8067	12.6627	0.318498	0.229471
12.8072	12.6632	0.320557	0.233413
12.8076	12.6637	0.31978	0.234621
12.8081	12.6641	0.319243	0.237191
12.8086	12.6646	0.319171	0.237718
12.8091	12.6651	0.321176	0.238715
12.8095	12.6656	0.320612	0.242087
12.81	12.666	0.321622	0.245257
12.8105	12.6665	0.320969	0.248095
12.8109	12.667	0.318253	0.244919
12.8114	12.6675	0.319654	0.247705
12.8119	12.6679	0.32295	0.253696
12.8124	12.6684	0.320093	0.252555
12.8128	12.6689	0.317744	0.256174
12.8133	12.6693	0.32178	0.257914
12.8138	12.6698	0.322787	0.25947
12.8142	12.6703	0.318995	0.260698
12.8147	12.6707	0.321167	0.265017
12.8152	12.6712	0.32221	0.267185
12.8157	12.6717	0.320112	0.266071
12.8161	12.6721	0.321342	0.26725
12.8166	12.6726	0.322356	0.270992
12.8171	12.6731	0.32148	0.272633
12.8176	12.6735	0.320692	0.27354
12.818	12.674	0.321467	0.273581
12.8185	12.6745	0.324187	0.274948
12.819	12.675	0.321111	0.275266
12.8194	12.6755	0.322686	0.278116
12.8199	12.6759	0.321652	0.279023
12.8204	12.6764	0.32078	0.277678
12.8209	12.6769	0.32283	0.277041
12.8213	12.6774	0.323279	0.280064
12.8218	12.6779	0.324359	0.28043
12.8223	12.6783	0.321988	0.28084
12.8227	12.6788	0.323021	0.278612
12.8232	12.6793	0.323607	0.276417
12.8237	12.6797	0.322894	0.275018
12.8242	12.6802	0.324159	0.275816
12.8246	12.6807	0.324465	0.2744
12.8251	12.6812	0.321349	0.268595
12.8256	12.6816	0.323318	0.266324
12.8261	12.6821	0.322602	0.265729
12.8265	12.6826	0.324029	0.263703
12.827	12.683	0.322392	0.260583
12.8275	12.6835	0.323343	0.256893
12.8279	12.684	0.325383	0.255585
12.8284	12.6844	0.32254	0.252225
12.8289	12.6849	0.323208	0.251523
12.8294	12.6854	0.32203	0.249222
12.8298	12.6859	0.322615	0.243981
12.8303	12.6864	0.323868	0.240876
12.8308	12.6868	0.325142	0.237868
12.8312	12.6873	0.323447	0.235428
12.8317	12.6878	0.32234	0.232114
12.8322	12.6883	0.323623	0.228582
12.8327	12.6887	0.325222	0.224649
12.8331	12.6892	0.323827	0.224745
12.8336	12.6897	0.326227	0.225941
12.8341	12.6901	0.325281	0.223893
12.8346	12.6906	0.322735	0.222891
12.835	12.6911	0.325392	0.226345
12.8355	12.6916	0.326732	0.231495
12.836	12.692	0.324634	0.235388
12.8364	12.6925	0.322399	0.237448
12.8369	12.6929	0.323119	0.241354
12.8374	12.6934	0.326661	0.247567
12.8379	12.6939	0.324408	0.249808
12.8383	12.6943	0.32346	0.256871
12.8388	12.6948	0.324691	0.260106
12.8393	12.6953	0.32255	0.261096
12.8397	12.6958	0.32451	0.261863
12.8402	12.6962	0.325771	0.264816
12.8407	12.6967	0.326006	0.263819
12.8412	12.6972	0.323478	0.263328
12.8416	12.6977	0.324159	0.260031
12.8421	12.6981	0.32469	0.258539
12.8426	12.6986	0.323093	0.254952
12.8431	12.6991	0.323298	0.253821
12.8435	12.6995	0.324442	0.249747
12.844	12.7	0.321498	0.242794
12.8445	12.7005	0.323102	0.240085
12.8449	12.7009	0.325469	0.238661
12.8454	12.7014	0.32339	0.23516
12.8459	12.7019	0.32141	0.22979
12.8464	12.7024	0.323306	0.229497
12.8468	12.7028	0.327052	0.227938
12.8473	12.7033	0.321456	0.227206
12.8478	12.7038	0.324831	0.231471
12.8482	12.7042	0.325888	0.233684
12.8487	12.7047	0.32385	0.235328
12.8492	12.7052	0.325261	0.241799
12.8497	12.7057	0.326814	0.252458
12.8501	12.7062	0.3239	0.260574
12.8506	12.7067	0.324005	0.266869
12.8511	12.7071	0.32447	0.278246
12.8516	12.7076	0.326064	0.290493
12.852	12.7081	0.325364	0.304227
12.8525	12.7086	0.325198	0.317426
12.853	12.709	0.324543	0.332058
12.8534	12.7095	0.322662	0.341256
12.8539	12.71	0.327977	0.356853
12.8544	12.7104	0.327896	0.37601
12.8549	12.7109	0.326293	0.386694
12.8553	12.7114	0.323664	0.395667
12.8558	12.7119	0.32634	0.408515
12.8563	12.7123	0.328077	0.420511
12.8567	12.7128	0.326681	0.431207
12.8572	12.7132	0.325013	0.441398
12.8577	12.7137	0.326817	0.449024
12.8582	12.7142	0.324223	0.452899
12.8586	12.7147	0.327004	0.461761
12.8591	12.7151	0.328017	0.475308
12.8596	12.7156	0.327534	0.483583
12.8601	12.7161	0.324513	0.488293
12.8605	12.7166	0.326789	0.499107
12.861	12.7171	0.327683	0.509682
12.8615	12.7175	0.326207	0.514912
12.8619	12.718	0.326666	0.521016
12.8624	12.7185	0.327053	0.519864
12.8629	12.7189	0.323839	0.512144
12.8634	12.7194	0.325159	0.511858
12.8638	12.7199	0.326328	0.510077
12.8643	12.7203	0.324671	0.506398
12.8648	12.7208	0.32214	0.499705
12.8652	12.7213	0.324243	0.504595
12.8657	12.7218	0.326535	0.511819
12.8662	12.7222	0.323832	0.525584
12.8667	12.7227	0.325975	0.555866
12.8671	12.7231	0.324698	0.58723
12.8676	12.7236	0.321255	0.619872
12.8681	12.7241	0.322631	0.671883
12.8686	12.7245	0.321616	0.732871
12.869	12.725	0.320197	0.777475
12.8695	12.7255	0.319331	0.812501
12.87	12.726	0.322019	0.849745
12.8704	12.7265	0.323633	0.875628
12.8709	12.7269	0.323191	0.895672
12.8714	12.7274	0.323375	0.91731
12.8719	12.7279	0.324065	0.927821
12.8723	12.7284	0.322655	0.9276
12.8728	12.7288	0.326034	0.937888
12.8733	12.7293	0.326841	0.952495
12.8737	12.7298	0.325101	0.95612
12.8742	12.7302	0.323601	0.952497
12.8747	12.7307	0.326315	0.959639
12.8752	12.7312	0.325676	0.962589
12.8756	12.7317	0.325029	0.96594
12.8761	12.7321	0.325013	0.969865
12.8766	12.7326	0.325308	0.970522
12.8771	12.7331	0.324993	0.96883
12.8775	12.7335	0.324789	0.969491
12.878	12.734	0.327242	0.980459
12.8785	12.7345	0.326	0.982106
12.8789	12.735	0.326504	0.975966
12.8794	12.7355	0.32537	0.976187
12.8799	12.7359	0.327061	0.984886
12.8804	12.7364	0.327317	0.983511
12.8808	12.7369	0.325129	0.983841
12.8813	12.7374	0.326432	0.984348
12.8818	12.7379	0.325489	0.983004
12.8822	12.7383	0.325902	0.98426
12.8827	12.7388	0.328386	0.98941
12.8832	12.7393	0.326588	0.991491
12.8837	12.7397	0.325373	0.981515
12.8841	12.7402	0.325459	0.987411
12.8846	12.7407	0.327832	0.990408
12.8851	12.7411	0.326658	0.990004
12.8856	12.7416	0.323997	0.990391
12.886	12.7421	0.326354	0.993926
12.8865	12.7425	0.327087	0.989508
12.887	12.743	0.327181	0.992626
12.8874	12.7435	0.328183	0.996543
12.8879	12.744	0.32678	0.99847
12.8884	12.7444	0.326961	0.993718
12.8889	12.7449	0.328967	0.997576
12.8893	12.7454	0.328391	0.997173
12.8898	12.7459	0.328524	0.995896
12.8903	12.7463	0.329069	1.00185
12.8907	12.7468	0.32787	0.995896
12.8912	12.7473	0.32707	0.992346
12.8917	12.7478	0.328099	0.994411
12.8922	12.7482	0.329058	1.00017
12.8926	12.7487	0.327287	0.999561
12.8931	12.7492	0.325847	0.994268
12.8936	12.7496	0.328087	1.00147
12.8941	12.7501	0.328497	0.996786
12.8945	12.7506	0.328369	0.999243
12.895	12.751	0.328439	1.00415
12.8955	12.7515	0.328334	1.00114
12.8959	12.752	0.327191	0.995926
12.8964	12.7524	0.32687	0.996453
12.8969	12.7529	0.32774	0.999201
12.8974	12.7534	0.327057	0.999705
12.8978	12.7538	0.327144	0.992323
12.8983	12.7543	0.326684	0.998739
12.8988	12.7548	0.329056	1.00003
