# 1304     AichiSR QXAFS
# Start     : 8.9544
# End       : 9.0544
# Dir       : Backward
# Points    : 300
# ScanTime  : 1.01549
# Date      : 13.04.23 22:24
# Ring Cur. : 25.5[mA]
12.7557	12.6118	0.308167	0.233569
12.7562	12.6122	0.304331	0.233789
12.7566	12.6127	0.305275	0.236584
12.7571	12.6131	0.308743	0.237993
12.7576	12.6136	0.308273	0.237345
12.7581	12.6141	0.308101	0.237242
12.7585	12.6145	0.309301	0.239012
12.759	12.615	0.307887	0.240515
12.7595	12.6155	0.307936	0.239745
12.7599	12.616	0.309299	0.24066
12.7604	12.6165	0.30985	0.239981
12.7609	12.6169	0.306476	0.239333
12.7614	12.6174	0.307529	0.241196
12.7618	12.6179	0.311299	0.243542
12.7623	12.6184	0.307912	0.239818
12.7628	12.6188	0.310601	0.240596
12.7632	12.6193	0.308498	0.240724
12.7637	12.6198	0.308129	0.242964
12.7642	12.6202	0.308692	0.241182
12.7647	12.6207	0.3113	0.241603
12.7651	12.6212	0.311232	0.241752
12.7656	12.6217	0.307793	0.239967
12.7661	12.6221	0.309226	0.243132
12.7666	12.6226	0.30917	0.243757
12.767	12.6231	0.309372	0.242615
12.7675	12.6235	0.308852	0.241724
12.768	12.624	0.311678	0.245378
12.7684	12.6245	0.310305	0.247411
12.7689	12.625	0.308659	0.246167
12.7694	12.6254	0.310216	0.246933
12.7699	12.6259	0.311423	0.247067
12.7703	12.6264	0.31005	0.247399
12.7708	12.6269	0.309949	0.249178
12.7713	12.6274	0.310385	0.249487
12.7717	12.6278	0.31057	0.247335
12.7722	12.6283	0.313259	0.249924
12.7727	12.6288	0.31063	0.25021
12.7732	12.6292	0.308662	0.25001
12.7736	12.6297	0.311111	0.249408
12.7741	12.6302	0.311169	0.248761
12.7746	12.6306	0.311574	0.248406
12.7751	12.6311	0.309962	0.24803
12.7755	12.6316	0.311557	0.249891
12.776	12.6321	0.310974	0.249181
12.7765	12.6325	0.31188	0.248867
12.7769	12.633	0.312494	0.24831
12.7774	12.6335	0.31271	0.24986
12.7779	12.6339	0.310241	0.250454
12.7784	12.6344	0.309938	0.248159
12.7788	12.6349	0.311998	0.24938
12.7793	12.6354	0.313871	0.249411
12.7798	12.6358	0.312586	0.251302
12.7802	12.6363	0.31245	0.252194
12.7807	12.6368	0.311927	0.250834
12.7812	12.6373	0.312909	0.251232
12.7817	12.6377	0.315089	0.252751
12.7821	12.6382	0.311067	0.253594
12.7826	12.6387	0.310784	0.254011
12.7831	12.6391	0.312445	0.255076
12.7836	12.6396	0.31242	0.254386
12.784	12.6401	0.312605	0.254596
12.7845	12.6405	0.311773	0.255691
12.785	12.641	0.313372	0.257018
12.7854	12.6415	0.31229	0.257051
12.7859	12.6419	0.313188	0.254884
12.7864	12.6424	0.314452	0.255468
12.7869	12.6429	0.31327	0.256094
12.7873	12.6433	0.31185	0.255513
12.7878	12.6438	0.311123	0.254114
12.7883	12.6443	0.313199	0.251931
12.7887	12.6447	0.312708	0.252827
12.7892	12.6452	0.309753	0.250909
12.7897	12.6457	0.309207	0.2507
12.7902	12.6462	0.310964	0.249517
12.7906	12.6467	0.312375	0.248142
12.7911	12.6472	0.312771	0.247097
12.7916	12.6476	0.313883	0.249401
12.7921	12.6481	0.313104	0.248122
12.7925	12.6486	0.313383	0.244867
12.793	12.649	0.314286	0.242425
12.7935	12.6495	0.316259	0.242038
12.7939	12.65	0.313999	0.241578
12.7944	12.6505	0.314042	0.240208
12.7949	12.6509	0.314655	0.236667
12.7954	12.6514	0.315388	0.233431
12.7958	12.6519	0.314722	0.232107
12.7963	12.6524	0.316687	0.232862
12.7968	12.6528	0.314361	0.229046
12.7972	12.6533	0.313976	0.22785
12.7977	12.6538	0.31763	0.227133
12.7982	12.6542	0.318055	0.225427
12.7987	12.6547	0.31832	0.224093
12.7991	12.6552	0.316747	0.223073
12.7996	12.6557	0.317509	0.221837
12.8001	12.6561	0.315985	0.218236
12.8006	12.6566	0.316706	0.218321
12.801	12.6571	0.317205	0.219153
12.8015	12.6576	0.315015	0.218048
12.802	12.6581	0.316766	0.217889
12.8024	12.6585	0.317198	0.217617
12.8029	12.659	0.317213	0.219187
12.8034	12.6595	0.317474	0.221155
12.8039	12.6599	0.318018	0.222039
12.8043	12.6604	0.317458	0.222962
12.8048	12.6609	0.318507	0.222895
12.8053	12.6613	0.31828	0.225119
12.8057	12.6618	0.318593	0.22819
12.8062	12.6623	0.317705	0.228974
12.8067	12.6627	0.318214	0.23004
12.8072	12.6632	0.320227	0.231821
12.8076	12.6637	0.318598	0.232301
12.8081	12.6641	0.316424	0.235984
12.8086	12.6646	0.318287	0.237125
12.8091	12.6651	0.318406	0.237572
12.8095	12.6656	0.318914	0.239351
12.81	12.666	0.317907	0.242909
12.8105	12.6665	0.318589	0.24555
12.8109	12.667	0.317624	0.246475
12.8114	12.6675	0.318641	0.248322
12.8119	12.6679	0.321527	0.24985
12.8124	12.6684	0.319555	0.251844
12.8128	12.6689	0.316599	0.2544
12.8133	12.6693	0.318394	0.256876
12.8138	12.6698	0.318556	0.257439
12.8142	12.6703	0.320493	0.259345
12.8147	12.6707	0.318813	0.26204
12.8152	12.6712	0.319573	0.264656
12.8157	12.6717	0.316546	0.265257
12.8161	12.6721	0.31809	0.267513
12.8166	12.6726	0.32177	0.269549
12.8171	12.6731	0.320403	0.269929
12.8176	12.6735	0.318303	0.271348
12.818	12.674	0.31953	0.274055
12.8185	12.6745	0.320816	0.274413
12.819	12.675	0.32082	0.273245
12.8194	12.6755	0.319557	0.275133
12.8199	12.6759	0.320049	0.276572
12.8204	12.6764	0.318878	0.275864
12.8209	12.6769	0.318652	0.273631
12.8213	12.6774	0.322586	0.277149
12.8218	12.6779	0.319611	0.275891
12.8223	12.6783	0.317588	0.275899
12.8227	12.6788	0.318815	0.276273
12.8232	12.6793	0.320758	0.273956
12.8237	12.6797	0.32165	0.27273
12.8242	12.6802	0.320442	0.27208
12.8246	12.6807	0.321278	0.27167
12.8251	12.6812	0.318438	0.268239
12.8256	12.6816	0.320474	0.264371
12.8261	12.6821	0.321973	0.263438
12.8265	12.6826	0.319323	0.260499
12.827	12.683	0.316271	0.256808
12.8275	12.6835	0.317548	0.255095
12.8279	12.684	0.318121	0.251518
12.8284	12.6844	0.320704	0.250287
12.8289	12.6849	0.319468	0.248425
12.8294	12.6854	0.318673	0.246581
12.8298	12.6859	0.317617	0.242045
12.8303	12.6864	0.318793	0.238201
12.8308	12.6868	0.32218	0.235665
12.8312	12.6873	0.320745	0.232501
12.8317	12.6878	0.319656	0.229495
12.8322	12.6883	0.319825	0.22668
12.8327	12.6887	0.321052	0.222786
12.8331	12.6892	0.32338	0.221979
12.8336	12.6897	0.320242	0.222372
12.8341	12.6901	0.318931	0.220203
12.8346	12.6906	0.319018	0.221655
12.835	12.6911	0.319258	0.222834
12.8355	12.6916	0.322837	0.226691
12.836	12.692	0.320958	0.230327
12.8364	12.6925	0.319516	0.236412
12.8369	12.6929	0.320502	0.239712
12.8374	12.6934	0.319076	0.243585
12.8379	12.6939	0.322523	0.248503
12.8383	12.6943	0.321447	0.254723
12.8388	12.6948	0.31937	0.256284
12.8393	12.6953	0.317922	0.25662
12.8397	12.6958	0.316979	0.256442
12.8402	12.6962	0.322233	0.261804
12.8407	12.6967	0.320101	0.260216
12.8412	12.6972	0.316818	0.258019
12.8416	12.6977	0.31701	0.256498
12.8421	12.6981	0.317528	0.254402
12.8426	12.6986	0.320836	0.250907
12.8431	12.6991	0.317641	0.248195
12.8435	12.6995	0.319615	0.246705
12.844	12.7	0.318691	0.241698
12.8445	12.7005	0.316408	0.23599
12.8449	12.7009	0.323365	0.236726
12.8454	12.7014	0.32312	0.234131
12.8459	12.7019	0.318741	0.22998
12.8464	12.7024	0.319453	0.226933
12.8468	12.7028	0.318815	0.22524
12.8473	12.7033	0.320396	0.224963
12.8478	12.7038	0.320685	0.228147
12.8482	12.7042	0.318369	0.231882
12.8487	12.7047	0.317255	0.232372
12.8492	12.7052	0.319027	0.238025
12.8497	12.7057	0.323185	0.248337
12.8501	12.7062	0.320637	0.255611
12.8506	12.7067	0.31885	0.264911
12.8511	12.7071	0.321382	0.275676
12.8516	12.7076	0.322016	0.286625
12.852	12.7081	0.323398	0.298772
12.8525	12.7086	0.322171	0.314333
12.853	12.709	0.320886	0.327785
12.8534	12.7095	0.319495	0.336625
12.8539	12.71	0.320837	0.351373
12.8544	12.7104	0.324734	0.367774
12.8549	12.7109	0.32281	0.381955
12.8553	12.7114	0.320657	0.391966
12.8558	12.7119	0.321062	0.403119
12.8563	12.7123	0.321485	0.411949
12.8567	12.7128	0.32335	0.424858
12.8572	12.7132	0.323309	0.437962
12.8577	12.7137	0.322108	0.444055
12.8582	12.7142	0.321869	0.450785
12.8586	12.7147	0.324062	0.459129
12.8591	12.7151	0.325696	0.470539
12.8596	12.7156	0.323238	0.477787
12.8601	12.7161	0.322816	0.487791
12.8605	12.7166	0.322816	0.49596
12.861	12.7171	0.32333	0.502463
12.8615	12.7175	0.325489	0.509559
12.8619	12.718	0.325028	0.516196
12.8624	12.7185	0.323573	0.518251
12.8629	12.7189	0.322643	0.510775
12.8634	12.7194	0.322465	0.509433
12.8638	12.7199	0.324378	0.506521
12.8643	12.7203	0.323712	0.505288
12.8648	12.7208	0.321435	0.499753
12.8652	12.7213	0.320867	0.501605
12.8657	12.7218	0.32398	0.508295
12.8662	12.7222	0.324214	0.526209
12.8667	12.7227	0.32505	0.552908
12.8671	12.7231	0.322481	0.58419
12.8676	12.7236	0.320648	0.62134
12.8681	12.7241	0.321859	0.674665
12.8686	12.7245	0.322961	0.729968
12.869	12.725	0.320838	0.773359
12.8695	12.7255	0.317801	0.811978
12.87	12.726	0.319303	0.846252
12.8704	12.7265	0.323203	0.877569
12.8709	12.7269	0.324171	0.897612
12.8714	12.7274	0.325047	0.91403
12.8719	12.7279	0.325023	0.927165
12.8723	12.7284	0.324413	0.931024
12.8728	12.7288	0.324982	0.938436
12.8733	12.7293	0.326397	0.951336
12.8737	12.7298	0.328197	0.959261
12.8742	12.7302	0.323739	0.95822
12.8747	12.7307	0.324796	0.957239
12.8752	12.7312	0.327244	0.965749
12.8756	12.7317	0.326746	0.969199
12.8761	12.7321	0.327169	0.972316
12.8766	12.7326	0.325373	0.975021
12.8771	12.7331	0.326438	0.969107
12.8775	12.7335	0.32494	0.972194
12.878	12.734	0.327973	0.981838
12.8785	12.7345	0.328576	0.983334
12.8789	12.735	0.325179	0.980117
12.8794	12.7355	0.32629	0.983407
12.8799	12.7359	0.329776	0.988511
12.8804	12.7364	0.328541	0.987047
12.8808	12.7369	0.328538	0.994472
12.8813	12.7374	0.328146	0.996621
12.8818	12.7379	0.327215	0.987686
12.8822	12.7383	0.329215	0.986833
12.8827	12.7388	0.329852	0.995497
12.8832	12.7393	0.329658	0.996875
12.8837	12.7397	0.32689	0.993439
12.8841	12.7402	0.328728	0.990885
12.8846	12.7407	0.330146	0.998015
12.8851	12.7411	0.330925	0.999705
12.8856	12.7416	0.33044	1.00422
12.886	12.7421	0.330059	1.00516
12.8865	12.7425	0.329425	1.00164
12.887	12.743	0.33051	1.00071
12.8874	12.7435	0.332528	1.00842
12.8879	12.744	0.331964	1.00987
12.8884	12.7444	0.328848	1.00298
12.8889	12.7449	0.32953	1.00235
12.8893	12.7454	0.332084	1.00204
12.8898	12.7459	0.33198	1.00556
12.8903	12.7463	0.334014	1.01498
12.8907	12.7468	0.332027	1.01109
12.8912	12.7473	0.329087	1.00107
12.8917	12.7478	0.332787	1.00586
12.8922	12.7482	0.335312	1.01892
12.8926	12.7487	0.333911	1.01655
12.8931	12.7492	0.329554	1.01066
12.8936	12.7496	0.332447	1.01157
12.8941	12.7501	0.333548	1.01393
12.8945	12.7506	0.333046	1.0146
12.895	12.751	0.334184	1.01612
12.8955	12.7515	0.33417	1.02036
12.8959	12.752	0.330589	1.00661
12.8964	12.7524	0.333128	1.01054
12.8969	12.7529	0.332969	1.01442
12.8974	12.7534	0.333653	1.01847
12.8978	12.7538	0.330776	1.01321
12.8983	12.7543	0.332633	1.01132
12.8988	12.7548	0.334374	1.01375
