# 1304     AichiSR QXAFS
# Start     : 8.9544
# End       : 9.0544
# Dir       : Forward
# Points    : 300
# ScanTime  : 1.01549
# Date      : 13.04.23 22:24
# Ring Cur. : 25.5[mA]
12.7557	12.7557	0.401718	1.22072
12.7562	12.7552	0.402512	1.2245
12.7566	12.7548	0.400373	1.22387
12.7571	12.7543	0.400741	1.22352
12.7576	12.7538	0.401021	1.21855
12.7581	12.7534	0.400999	1.21614
12.7585	12.7529	0.402415	1.22176
12.759	12.7524	0.400434	1.22258
12.7595	12.752	0.400683	1.21989
12.7599	12.7515	0.39994	1.21698
12.7604	12.751	0.401505	1.22163
12.7609	12.7505	0.401077	1.22173
12.7614	12.7501	0.398065	1.22136
12.7618	12.7496	0.399857	1.21895
12.7623	12.7492	0.399443	1.21533
12.7628	12.7487	0.400643	1.2163
12.7632	12.7482	0.400934	1.22177
12.7637	12.7478	0.400083	1.22257
12.7642	12.7473	0.399433	1.21708
12.7647	12.7468	0.399281	1.21461
12.7651	12.7463	0.400627	1.21674
12.7656	12.7459	0.399548	1.21877
12.7661	12.7454	0.398123	1.21665
12.7666	12.7449	0.400069	1.21451
12.767	12.7444	0.398975	1.21311
12.7675	12.7439	0.400014	1.2123
12.768	12.7435	0.400034	1.21477
12.7684	12.743	0.39896	1.21517
12.7689	12.7425	0.398947	1.21036
12.7694	12.7421	0.399195	1.20918
12.7699	12.7416	0.399724	1.2081
12.7703	12.7411	0.399021	1.21399
12.7708	12.7407	0.397665	1.2118
12.7713	12.7402	0.400262	1.20865
12.7717	12.7397	0.398725	1.20493
12.7722	12.7392	0.398835	1.20355
12.7727	12.7388	0.399509	1.20828
12.7732	12.7383	0.398478	1.20579
12.7736	12.7378	0.397594	1.20224
12.7741	12.7374	0.397557	1.2021
12.7746	12.7369	0.399103	1.20159
12.7751	12.7364	0.398934	1.20258
12.7755	12.7359	0.396132	1.19946
12.776	12.7354	0.397573	1.19667
12.7765	12.735	0.398589	1.19646
12.7769	12.7345	0.39863	1.19696
12.7774	12.734	0.396935	1.19225
12.7779	12.7335	0.396374	1.1895
12.7784	12.7331	0.394405	1.18881
12.7788	12.7326	0.397456	1.18447
12.7793	12.7321	0.396156	1.18119
12.7798	12.7317	0.398286	1.18271
12.7802	12.7312	0.395849	1.17959
12.7807	12.7307	0.396549	1.17427
12.7812	12.7302	0.397082	1.16742
12.7817	12.7298	0.397384	1.16453
12.7821	12.7293	0.395982	1.16474
12.7826	12.7288	0.393889	1.16023
12.7831	12.7284	0.396183	1.14862
12.7836	12.7279	0.396627	1.13886
12.784	12.7274	0.395898	1.13315
12.7845	12.7269	0.395105	1.12136
12.785	12.7265	0.392934	1.1054
12.7854	12.726	0.392389	1.08113
12.7859	12.7255	0.391913	1.04897
12.7864	12.725	0.388866	1.01368
12.7869	12.7246	0.390492	0.96973
12.7873	12.7241	0.387966	0.915152
12.7878	12.7236	0.389626	0.849952
12.7883	12.7231	0.391357	0.79135
12.7887	12.7227	0.39368	0.737368
12.7892	12.7222	0.394106	0.690195
12.7897	12.7218	0.394742	0.656092
12.7902	12.7213	0.394962	0.631061
12.7906	12.7208	0.393931	0.615962
12.7911	12.7203	0.394779	0.609977
12.7916	12.7199	0.394515	0.609801
12.7921	12.7194	0.39364	0.612504
12.7925	12.7189	0.391863	0.613814
12.793	12.7185	0.392779	0.619931
12.7935	12.718	0.393263	0.624917
12.7939	12.7175	0.393138	0.625078
12.7944	12.7171	0.393241	0.622477
12.7949	12.7166	0.392408	0.616066
12.7954	12.7161	0.392937	0.606009
12.7958	12.7156	0.394194	0.595837
12.7963	12.7152	0.39404	0.585293
12.7968	12.7147	0.393391	0.572863
12.7972	12.7142	0.392134	0.561811
12.7977	12.7137	0.394968	0.552211
12.7982	12.7132	0.39766	0.549579
12.7987	12.7128	0.395119	0.538492
12.7991	12.7123	0.390928	0.522818
12.7996	12.7119	0.390512	0.510267
12.8001	12.7114	0.393013	0.497331
12.8006	12.7109	0.392853	0.484463
12.801	12.7104	0.393162	0.471265
12.8015	12.71	0.391614	0.45447
12.802	12.7095	0.391121	0.435904
12.8024	12.709	0.394084	0.419521
12.8029	12.7086	0.392752	0.405669
12.8034	12.7081	0.391811	0.390053
12.8039	12.7076	0.392249	0.372819
12.8043	12.7071	0.391341	0.356561
12.8048	12.7067	0.392445	0.343763
12.8053	12.7062	0.390452	0.329342
12.8057	12.7057	0.391978	0.318895
12.8062	12.7052	0.390636	0.308023
12.8067	12.7047	0.39053	0.294657
12.8072	12.7042	0.393103	0.289303
12.8076	12.7038	0.392323	0.283718
12.8081	12.7033	0.393297	0.28047
12.8086	12.7028	0.392525	0.27856
12.8091	12.7024	0.39078	0.273945
12.8095	12.7019	0.392914	0.274948
12.81	12.7014	0.393626	0.27866
12.8105	12.701	0.391965	0.282487
12.8109	12.7005	0.392714	0.285538
12.8114	12.7	0.391645	0.287331
12.8119	12.6995	0.393718	0.294385
12.8124	12.6991	0.392239	0.2999
12.8128	12.6986	0.393122	0.304851
12.8133	12.6982	0.391221	0.307555
12.8138	12.6977	0.394479	0.310579
12.8142	12.6972	0.394908	0.31323
12.8147	12.6967	0.392855	0.316364
12.8152	12.6963	0.393319	0.319805
12.8157	12.6958	0.392576	0.320539
12.8161	12.6953	0.393792	0.318541
12.8166	12.6948	0.394743	0.316762
12.8171	12.6943	0.395324	0.316634
12.8176	12.6939	0.392934	0.313017
12.818	12.6934	0.39291	0.307959
12.8185	12.6929	0.393111	0.30165
12.819	12.6925	0.394061	0.297253
12.8194	12.692	0.393722	0.29229
12.8199	12.6916	0.393921	0.287958
12.8204	12.6911	0.393953	0.281187
12.8209	12.6906	0.392096	0.276271
12.8213	12.6901	0.394108	0.274965
12.8218	12.6897	0.394256	0.272502
12.8223	12.6892	0.394919	0.272376
12.8227	12.6887	0.393832	0.270858
12.8232	12.6883	0.393805	0.272481
12.8237	12.6878	0.39457	0.275095
12.8242	12.6873	0.393993	0.280828
12.8246	12.6868	0.393124	0.283243
12.8251	12.6864	0.392934	0.287361
12.8256	12.6859	0.392474	0.290006
12.8261	12.6854	0.392593	0.294084
12.8265	12.6849	0.392949	0.299353
12.827	12.6844	0.391197	0.303617
12.8275	12.684	0.391217	0.306372
12.8279	12.6835	0.392342	0.308441
12.8284	12.683	0.393916	0.312421
12.8289	12.6826	0.392866	0.315463
12.8294	12.6821	0.392488	0.319477
12.8298	12.6816	0.39316	0.321556
12.8303	12.6812	0.392998	0.323197
12.8308	12.6807	0.396344	0.326566
12.8312	12.6802	0.394816	0.330926
12.8317	12.6797	0.393376	0.333904
12.8322	12.6793	0.3942	0.334902
12.8327	12.6788	0.394765	0.335991
12.8331	12.6783	0.394975	0.339373
12.8336	12.6779	0.396026	0.340327
12.8341	12.6774	0.396431	0.340566
12.8346	12.6769	0.395253	0.342015
12.835	12.6764	0.393882	0.339621
12.8355	12.676	0.395479	0.34093
12.836	12.6755	0.396186	0.34137
12.8364	12.675	0.393507	0.340166
12.8369	12.6745	0.393464	0.337743
12.8374	12.674	0.394305	0.336179
12.8379	12.6736	0.39522	0.336215
12.8383	12.6731	0.39573	0.335639
12.8388	12.6726	0.393934	0.335332
12.8393	12.6722	0.395719	0.331288
12.8397	12.6717	0.39486	0.329663
12.8402	12.6712	0.396881	0.328169
12.8407	12.6707	0.395777	0.328144
12.8412	12.6703	0.39413	0.3262
12.8416	12.6698	0.395512	0.322178
12.8421	12.6693	0.396498	0.320917
12.8426	12.6689	0.395244	0.318256
12.8431	12.6684	0.395447	0.316723
12.8435	12.668	0.394536	0.314927
12.844	12.6675	0.395134	0.310939
12.8445	12.667	0.393852	0.306489
12.8449	12.6665	0.396783	0.305663
12.8454	12.666	0.395702	0.304493
12.8459	12.6656	0.393218	0.302369
12.8464	12.6651	0.396067	0.298158
12.8468	12.6646	0.395457	0.29599
12.8473	12.6641	0.396205	0.29294
12.8478	12.6637	0.396884	0.293822
12.8482	12.6632	0.393949	0.291299
12.8487	12.6627	0.395202	0.287516
12.8492	12.6623	0.393137	0.285252
12.8497	12.6618	0.39572	0.284069
12.8501	12.6614	0.39568	0.283274
12.8506	12.6609	0.393525	0.279865
12.8511	12.6604	0.39276	0.278251
12.8516	12.6599	0.394294	0.275635
12.852	12.6595	0.395283	0.274598
12.8525	12.659	0.394538	0.274979
12.853	12.6585	0.392209	0.273481
12.8534	12.6581	0.393453	0.270131
12.8539	12.6576	0.394213	0.270313
12.8544	12.6571	0.39495	0.270737
12.8549	12.6566	0.394054	0.272749
12.8553	12.6562	0.392228	0.273018
12.8558	12.6557	0.393376	0.27162
12.8563	12.6552	0.39268	0.27212
12.8567	12.6547	0.394609	0.273911
12.8572	12.6542	0.395736	0.278097
12.8577	12.6538	0.393678	0.277859
12.8582	12.6533	0.393307	0.280013
12.8586	12.6528	0.395821	0.28078
12.8591	12.6524	0.395212	0.284121
12.8596	12.6519	0.396235	0.287869
12.8601	12.6514	0.394298	0.289458
12.8605	12.6509	0.395489	0.289927
12.861	12.6505	0.394575	0.292325
12.8615	12.65	0.3948	0.296578
12.8619	12.6495	0.394065	0.30053
12.8624	12.6491	0.393242	0.301862
12.8629	12.6486	0.39293	0.300869
12.8634	12.6481	0.392285	0.30294
12.8638	12.6476	0.392198	0.305229
12.8643	12.6472	0.394015	0.307775
12.8648	12.6467	0.388763	0.308752
12.8652	12.6462	0.388842	0.309048
12.8657	12.6457	0.390974	0.308911
12.8662	12.6452	0.390844	0.311159
12.8667	12.6448	0.389756	0.314809
12.8671	12.6443	0.388962	0.316188
12.8676	12.6438	0.390929	0.315319
12.8681	12.6433	0.390812	0.315768
12.8686	12.6429	0.392833	0.318129
12.869	12.6424	0.39189	0.319897
12.8695	12.642	0.391585	0.319234
12.87	12.6415	0.390592	0.319295
12.8704	12.641	0.393616	0.319446
12.8709	12.6405	0.392828	0.32093
12.8714	12.6401	0.392946	0.319743
12.8719	12.6396	0.39091	0.320848
12.8723	12.6391	0.391358	0.317288
12.8728	12.6387	0.391688	0.316891
12.8733	12.6382	0.392456	0.317982
12.8737	12.6377	0.393122	0.318864
12.8742	12.6373	0.392097	0.317535
12.8747	12.6368	0.39186	0.314244
12.8752	12.6363	0.391416	0.314129
12.8756	12.6358	0.391236	0.313295
12.8761	12.6354	0.391309	0.314393
12.8766	12.6349	0.391435	0.313557
12.8771	12.6344	0.390364	0.31012
12.8775	12.6339	0.391394	0.310284
12.878	12.6335	0.390485	0.310658
12.8785	12.633	0.3904	0.312129
12.8789	12.6325	0.390623	0.311089
12.8794	12.6321	0.390357	0.311163
12.8799	12.6316	0.392569	0.309811
12.8804	12.6311	0.391348	0.310973
12.8808	12.6307	0.391729	0.312395
12.8813	12.6302	0.390254	0.312811
12.8818	12.6297	0.389792	0.312555
12.8822	12.6292	0.390467	0.31127
12.8827	12.6288	0.391173	0.311794
12.8832	12.6283	0.390412	0.313685
12.8837	12.6278	0.39196	0.312431
12.8841	12.6274	0.389328	0.3102
12.8846	12.6269	0.390167	0.310886
12.8851	12.6264	0.391532	0.311855
12.8856	12.6259	0.389616	0.311425
12.886	12.6254	0.388292	0.310653
12.8865	12.625	0.38843	0.309193
12.887	12.6245	0.390959	0.307859
12.8874	12.624	0.389136	0.307655
12.8879	12.6235	0.389369	0.308209
12.8884	12.6231	0.388227	0.306288
12.8889	12.6226	0.388332	0.304825
12.8893	12.6221	0.390717	0.304602
12.8898	12.6217	0.39021	0.304101
12.8903	12.6212	0.386997	0.305073
12.8907	12.6207	0.388398	0.302394
12.8912	12.6202	0.389513	0.301403
12.8917	12.6198	0.389589	0.302081
12.8922	12.6193	0.388572	0.302915
12.8926	12.6188	0.388683	0.303179
12.8931	12.6184	0.388417	0.302254
12.8936	12.6179	0.387435	0.300867
12.8941	12.6174	0.388385	0.301302
12.8945	12.6169	0.38761	0.300948
12.895	12.6165	0.38713	0.302444
12.8955	12.616	0.386678	0.300817
12.8959	12.6155	0.386037	0.300442
12.8964	12.615	0.389156	0.300498
12.8969	12.6145	0.387987	0.300789
12.8974	12.6141	0.387579	0.300966
12.8978	12.6136	0.387759	0.299386
12.8983	12.6131	0.385862	0.297138
12.8988	12.6127	0.388456	0.29683
