# 1304     AichiSR QXAFS
# Start     : 8.9544
# End       : 9.0544
# Dir       : Backward
# Points    : 300
# ScanTime  : 1.01549
# Date      : 13.04.23 22:27
# Ring Cur. : 25.4[mA]
12.7557	12.6118	0.297539	0.226312
12.7562	12.6122	0.297133	0.226977
12.7566	12.6127	0.301632	0.230302
12.7571	12.6132	0.299344	0.231235
12.7576	12.6136	0.298451	0.231581
12.7581	12.6141	0.298455	0.232501
12.7585	12.6146	0.301021	0.231641
12.759	12.615	0.299622	0.231694
12.7595	12.6155	0.300465	0.234299
12.7599	12.616	0.29856	0.234857
12.7604	12.6165	0.298944	0.232109
12.7609	12.617	0.300228	0.233819
12.7614	12.6174	0.302319	0.233869
12.7618	12.6179	0.3009	0.235362
12.7623	12.6184	0.298617	0.235001
12.7628	12.6189	0.300291	0.235287
12.7632	12.6193	0.301357	0.232966
12.7637	12.6198	0.302636	0.235133
12.7642	12.6203	0.301131	0.235743
12.7647	12.6207	0.301238	0.236189
12.7651	12.6212	0.299824	0.23318
12.7656	12.6217	0.2983	0.232086
12.7661	12.6222	0.304003	0.235216
12.7666	12.6226	0.300565	0.237119
12.767	12.6231	0.29945	0.236712
12.7675	12.6236	0.299461	0.235023
12.768	12.624	0.301257	0.237603
12.7684	12.6245	0.301961	0.237303
12.7689	12.625	0.301377	0.239819
12.7694	12.6255	0.300872	0.241684
12.7699	12.626	0.301181	0.240201
12.7703	12.6264	0.301133	0.238691
12.7708	12.6269	0.301993	0.240586
12.7713	12.6274	0.302276	0.243049
12.7717	12.6279	0.30139	0.242884
12.7722	12.6283	0.299487	0.239314
12.7727	12.6288	0.30271	0.241031
12.7732	12.6293	0.302987	0.24171
12.7736	12.6297	0.302098	0.243707
12.7741	12.6302	0.301767	0.243564
12.7746	12.6307	0.299936	0.240399
12.7751	12.6312	0.301598	0.239974
12.7755	12.6316	0.303423	0.242898
12.776	12.6321	0.303446	0.243262
12.7765	12.6326	0.302658	0.242267
12.7769	12.633	0.301484	0.23993
12.7774	12.6335	0.302195	0.239682
12.7779	12.634	0.302451	0.241542
12.7784	12.6344	0.304221	0.243284
12.7788	12.6349	0.303213	0.244739
12.7793	12.6354	0.301639	0.240407
12.7798	12.6359	0.302206	0.240231
12.7802	12.6363	0.305937	0.244092
12.7807	12.6368	0.303456	0.24497
12.7812	12.6373	0.300231	0.245232
12.7817	12.6378	0.301857	0.244046
12.7821	12.6382	0.305642	0.246052
12.7826	12.6387	0.304846	0.246454
12.7831	12.6392	0.303731	0.24798
12.7836	12.6396	0.304809	0.249688
12.784	12.6401	0.302584	0.246138
12.7845	12.6406	0.30393	0.246064
12.785	12.641	0.305087	0.249234
12.7854	12.6415	0.305276	0.250161
12.7859	12.642	0.303209	0.248131
12.7864	12.6424	0.303425	0.248486
12.7869	12.6429	0.303252	0.2462
12.7873	12.6434	0.304467	0.247043
12.7878	12.6438	0.303358	0.248336
12.7883	12.6443	0.302508	0.247108
12.7887	12.6448	0.301862	0.243613
12.7892	12.6453	0.301354	0.241705
12.7897	12.6457	0.303236	0.244016
12.7902	12.6462	0.304686	0.244632
12.7906	12.6467	0.302744	0.241886
12.7911	12.6472	0.302273	0.241258
12.7916	12.6477	0.306173	0.239037
12.7921	12.6481	0.30547	0.239199
12.7925	12.6486	0.304634	0.238652
12.793	12.6491	0.303363	0.237077
12.7935	12.6495	0.302761	0.234535
12.7939	12.65	0.302734	0.230513
12.7944	12.6505	0.304903	0.231363
12.7949	12.651	0.307168	0.229968
12.7954	12.6514	0.304514	0.227598
12.7958	12.6519	0.305345	0.224167
12.7963	12.6524	0.307179	0.223064
12.7968	12.6528	0.30661	0.221772
12.7972	12.6533	0.308426	0.222801
12.7977	12.6538	0.306175	0.219979
12.7982	12.6543	0.307318	0.217142
12.7987	12.6547	0.307073	0.214962
12.7991	12.6552	0.307095	0.214773
12.7996	12.6557	0.308379	0.215729
12.8001	12.6562	0.306195	0.212872
12.8006	12.6567	0.304768	0.210896
12.801	12.6571	0.30679	0.210899
12.8015	12.6576	0.30743	0.210151
12.802	12.6581	0.306948	0.212687
12.8024	12.6586	0.306282	0.21179
12.8029	12.659	0.305268	0.210682
12.8034	12.6595	0.30689	0.211822
12.8039	12.6599	0.306457	0.21372
12.8043	12.6604	0.305913	0.216275
12.8048	12.6609	0.307223	0.216158
12.8053	12.6614	0.305952	0.216505
12.8057	12.6618	0.309007	0.217946
12.8062	12.6623	0.306911	0.220871
12.8067	12.6628	0.307733	0.22264
12.8072	12.6632	0.307995	0.225098
12.8076	12.6637	0.306991	0.224877
12.8081	12.6642	0.308132	0.226506
12.8086	12.6646	0.307855	0.229229
12.8091	12.6651	0.309471	0.232978
12.8095	12.6656	0.307128	0.23395
12.81	12.6661	0.307149	0.232386
12.8105	12.6665	0.31128	0.236829
12.8109	12.667	0.311555	0.241242
12.8114	12.6675	0.309511	0.24106
12.8119	12.668	0.308233	0.243046
12.8124	12.6684	0.30665	0.242385
12.8128	12.6689	0.309487	0.244819
12.8133	12.6694	0.31009	0.248154
12.8138	12.6698	0.309733	0.251873
12.8142	12.6703	0.307118	0.250834
12.8147	12.6708	0.307675	0.252063
12.8152	12.6712	0.310843	0.255327
12.8157	12.6717	0.307437	0.255534
12.8161	12.6722	0.308459	0.259492
12.8166	12.6726	0.309259	0.261489
12.8171	12.6731	0.30856	0.258849
12.8176	12.6736	0.308814	0.260029
12.818	12.674	0.31061	0.265169
12.8185	12.6745	0.311648	0.266554
12.819	12.675	0.307396	0.265303
12.8194	12.6755	0.308638	0.265214
12.8199	12.676	0.312933	0.267087
12.8204	12.6765	0.310148	0.267432
12.8209	12.6769	0.31086	0.268965
12.8213	12.6774	0.310094	0.269934
12.8218	12.6779	0.308276	0.265743
12.8223	12.6784	0.310361	0.266096
12.8227	12.6788	0.312287	0.269368
12.8232	12.6793	0.312289	0.268331
12.8237	12.6798	0.311171	0.266826
12.8242	12.6802	0.310397	0.263967
12.8246	12.6807	0.312995	0.263199
12.8251	12.6812	0.310717	0.260299
12.8256	12.6817	0.310717	0.260838
12.8261	12.6821	0.313145	0.257439
12.8265	12.6826	0.311089	0.25291
12.827	12.6831	0.311767	0.250601
12.8275	12.6835	0.310801	0.250264
12.8279	12.684	0.312876	0.250521
12.8284	12.6845	0.311358	0.245361
12.8289	12.685	0.310462	0.240771
12.8294	12.6854	0.313237	0.239673
12.8298	12.6859	0.312845	0.237485
12.8303	12.6864	0.313588	0.235361
12.8308	12.6869	0.313426	0.232507
12.8312	12.6874	0.310636	0.225762
12.8317	12.6878	0.31589	0.223848
12.8322	12.6883	0.315699	0.222585
12.8327	12.6888	0.314567	0.22168
12.8331	12.6892	0.315651	0.219093
12.8336	12.6897	0.314705	0.215669
12.8341	12.6902	0.315729	0.21626
12.8346	12.6906	0.314935	0.218058
12.835	12.6911	0.314297	0.220845
12.8355	12.6916	0.315941	0.224606
12.836	12.692	0.314473	0.225453
12.8364	12.6925	0.315679	0.229949
12.8369	12.693	0.31534	0.236485
12.8374	12.6934	0.316792	0.243787
12.8379	12.6939	0.314581	0.246641
12.8383	12.6944	0.316702	0.248543
12.8388	12.6949	0.317847	0.253802
12.8393	12.6953	0.317389	0.257215
12.8397	12.6958	0.317519	0.258465
12.8402	12.6963	0.317053	0.258121
12.8407	12.6968	0.315045	0.256136
12.8412	12.6972	0.315113	0.255402
12.8416	12.6977	0.315368	0.253266
12.8421	12.6982	0.316774	0.253167
12.8426	12.6986	0.31564	0.250755
12.8431	12.6991	0.31444	0.244264
12.8435	12.6996	0.317191	0.242494
12.844	12.7	0.315907	0.239043
12.8445	12.7005	0.315983	0.237368
12.8449	12.701	0.317853	0.23444
12.8454	12.7015	0.316943	0.228889
12.8459	12.7019	0.317492	0.225548
12.8464	12.7024	0.31644	0.224184
12.8468	12.7029	0.318287	0.225663
12.8473	12.7033	0.316194	0.223557
12.8478	12.7038	0.315818	0.223309
12.8482	12.7043	0.317778	0.227173
12.8487	12.7048	0.317027	0.231261
12.8492	12.7052	0.316423	0.238065
12.8497	12.7057	0.318045	0.246718
12.8501	12.7062	0.31894	0.253182
12.8506	12.7067	0.318649	0.260603
12.8511	12.7072	0.317006	0.273884
12.8516	12.7076	0.320267	0.288095
12.852	12.7081	0.319731	0.297437
12.8525	12.7086	0.318455	0.308512
12.853	12.7091	0.322433	0.323984
12.8534	12.7095	0.320961	0.335923
12.8539	12.71	0.319918	0.351591
12.8544	12.7105	0.320916	0.364241
12.8549	12.7109	0.320057	0.375368
12.8553	12.7114	0.320334	0.385489
12.8558	12.7119	0.319933	0.399639
12.8563	12.7124	0.319547	0.412697
12.8567	12.7128	0.3192	0.421869
12.8572	12.7133	0.319758	0.430046
12.8577	12.7138	0.321323	0.4385
12.8582	12.7142	0.320574	0.445161
12.8586	12.7147	0.320646	0.456372
12.8591	12.7152	0.322036	0.466876
12.8596	12.7157	0.321553	0.473064
12.8601	12.7161	0.321033	0.478381
12.8605	12.7166	0.319804	0.491632
12.861	12.7171	0.320808	0.500663
12.8615	12.7176	0.318309	0.505744
12.8619	12.718	0.320798	0.508614
12.8624	12.7185	0.320064	0.507644
12.8629	12.719	0.318825	0.5037
12.8634	12.7194	0.318133	0.505743
12.8638	12.7199	0.320504	0.502149
12.8643	12.7204	0.318151	0.495146
12.8648	12.7208	0.318785	0.493532
12.8652	12.7213	0.321771	0.499922
12.8657	12.7218	0.321285	0.506365
12.8662	12.7222	0.319112	0.517167
12.8667	12.7227	0.320005	0.53922
12.8671	12.7232	0.320085	0.569436
12.8676	12.7236	0.318389	0.61102
12.8681	12.7241	0.31679	0.662008
12.8686	12.7246	0.315909	0.710599
12.869	12.7251	0.315222	0.75517
12.8695	12.7255	0.315752	0.795338
12.87	12.726	0.315096	0.834007
12.8704	12.7265	0.317942	0.866705
12.8709	12.727	0.318388	0.88213
12.8714	12.7274	0.317351	0.895673
12.8719	12.7279	0.319395	0.910409
12.8723	12.7284	0.320125	0.921212
12.8728	12.7289	0.319027	0.928259
12.8733	12.7293	0.319136	0.932578
12.8737	12.7298	0.320117	0.938113
12.8742	12.7303	0.320239	0.938897
12.8747	12.7307	0.319617	0.94666
12.8752	12.7312	0.319574	0.950859
12.8756	12.7317	0.317395	0.944957
12.8761	12.7322	0.31835	0.951375
12.8766	12.7326	0.323259	0.956201
12.8771	12.7331	0.320625	0.957177
12.8775	12.7336	0.318971	0.959208
12.878	12.734	0.321788	0.964025
12.8785	12.7345	0.321892	0.962592
12.8789	12.735	0.321038	0.961704
12.8794	12.7355	0.321854	0.969564
12.8799	12.736	0.321637	0.972744
12.8804	12.7365	0.319799	0.963889
12.8808	12.7369	0.320457	0.967091
12.8813	12.7374	0.322647	0.971691
12.8818	12.7379	0.320011	0.9675
12.8822	12.7384	0.31924	0.967956
12.8827	12.7388	0.321843	0.973336
12.8832	12.7393	0.320659	0.971959
12.8837	12.7398	0.322313	0.973543
12.8841	12.7402	0.323199	0.976509
12.8846	12.7407	0.321847	0.97897
12.8851	12.7412	0.323035	0.980177
12.8856	12.7417	0.323537	0.980625
12.886	12.7421	0.3235	0.980876
12.8865	12.7426	0.322813	0.979664
12.887	12.743	0.322592	0.98172
12.8874	12.7435	0.323192	0.984219
12.8879	12.744	0.322732	0.9803
12.8884	12.7445	0.322058	0.978209
12.8889	12.7449	0.323477	0.983152
12.8893	12.7454	0.322865	0.986082
12.8898	12.7459	0.323732	0.982665
12.8903	12.7464	0.324961	0.984667
12.8907	12.7468	0.325099	0.984844
12.8912	12.7473	0.322987	0.986462
12.8917	12.7478	0.325123	0.988088
12.8922	12.7483	0.326845	0.992004
12.8926	12.7487	0.324165	0.984238
12.8931	12.7492	0.32352	0.98133
12.8936	12.7497	0.326202	0.991914
12.8941	12.7501	0.325396	0.994509
12.8945	12.7506	0.323128	0.984388
12.895	12.7511	0.324069	0.983135
12.8955	12.7515	0.325235	0.988956
12.8959	12.752	0.32414	0.985479
12.8964	12.7525	0.322991	0.987009
12.8969	12.7529	0.325849	0.989096
12.8974	12.7534	0.325606	0.987642
12.8978	12.7539	0.324179	0.986426
12.8983	12.7543	0.32524	0.992396
12.8988	12.7548	0.326503	0.995666
