# 1304     AichiSR QXAFS
# Start     : 8.9544
# End       : 9.0544
# Dir       : Backward
# Points    : 300
# ScanTime  : 1.01549
# Date      : 13.04.23 22:29
# Ring Cur. : 25.6[mA]
12.7557	12.6118	0.301156	0.230806
12.7562	12.6123	0.300787	0.229557
12.7566	12.6127	0.300845	0.229929
12.7571	12.6132	0.30305	0.231738
12.7576	12.6136	0.301211	0.232373
12.7581	12.6141	0.299435	0.232462
12.7585	12.6146	0.304042	0.233909
12.759	12.6151	0.301288	0.232362
12.7595	12.6155	0.300354	0.23403
12.7599	12.616	0.301922	0.235098
12.7604	12.6165	0.300732	0.236821
12.7609	12.617	0.301849	0.234687
12.7614	12.6175	0.302781	0.234345
12.7618	12.6179	0.304657	0.236034
12.7623	12.6184	0.300153	0.235857
12.7628	12.6189	0.302077	0.237632
12.7632	12.6193	0.303504	0.236737
12.7637	12.6198	0.302848	0.23514
12.7642	12.6203	0.302019	0.235495
12.7647	12.6208	0.304193	0.23762
12.7651	12.6212	0.302651	0.237858
12.7656	12.6217	0.299797	0.235104
12.7661	12.6222	0.304929	0.238105
12.7666	12.6226	0.303908	0.236858
12.767	12.6231	0.302049	0.237642
12.7675	12.6236	0.302645	0.239141
12.768	12.6241	0.304811	0.240687
12.7684	12.6245	0.302682	0.238233
12.7689	12.625	0.303104	0.239095
12.7694	12.6255	0.30349	0.242033
12.7699	12.626	0.302534	0.243259
12.7703	12.6265	0.30225	0.241855
12.7708	12.6269	0.304145	0.241176
12.7713	12.6274	0.303549	0.243253
12.7717	12.6279	0.304107	0.24473
12.7722	12.6284	0.302991	0.244987
12.7727	12.6288	0.304528	0.243404
12.7732	12.6293	0.303064	0.243046
12.7736	12.6297	0.305583	0.243486
12.7741	12.6302	0.304456	0.244968
12.7746	12.6307	0.303837	0.244561
12.7751	12.6312	0.302258	0.24218
12.7755	12.6317	0.304553	0.243393
12.776	12.6321	0.30465	0.242476
12.7765	12.6326	0.304667	0.243441
12.7769	12.633	0.303847	0.244341
12.7774	12.6335	0.304996	0.243363
12.7779	12.634	0.304756	0.242539
12.7784	12.6344	0.302981	0.242693
12.7788	12.6349	0.307014	0.246349
12.7793	12.6354	0.304006	0.245479
12.7798	12.6359	0.303123	0.243167
12.7802	12.6364	0.305618	0.244291
12.7807	12.6368	0.305962	0.245696
12.7812	12.6373	0.30438	0.246442
12.7817	12.6378	0.304455	0.248379
12.7821	12.6383	0.305986	0.248932
12.7826	12.6387	0.306421	0.246005
12.7831	12.6392	0.304489	0.246836
12.7836	12.6396	0.308091	0.251288
12.784	12.6401	0.306055	0.251067
12.7845	12.6406	0.305825	0.249055
12.785	12.6411	0.305798	0.249969
12.7854	12.6415	0.306459	0.24981
12.7859	12.642	0.305337	0.25033
12.7864	12.6425	0.306362	0.252518
12.7869	12.6429	0.305053	0.249762
12.7873	12.6434	0.30434	0.246469
12.7878	12.6438	0.304616	0.248697
12.7883	12.6443	0.306255	0.249991
12.7887	12.6448	0.304332	0.249089
12.7892	12.6453	0.30252	0.244657
12.7897	12.6458	0.305894	0.245273
12.7902	12.6462	0.305149	0.244112
12.7906	12.6467	0.3048	0.245189
12.7911	12.6472	0.306687	0.244941
12.7916	12.6477	0.307347	0.243087
12.7921	12.6482	0.307206	0.240506
12.7925	12.6486	0.307497	0.239143
12.793	12.6491	0.309101	0.239077
12.7935	12.6496	0.307039	0.238131
12.7939	12.65	0.306216	0.234138
12.7944	12.6505	0.307043	0.232082
12.7949	12.651	0.308508	0.23138
12.7954	12.6515	0.30849	0.230733
12.7958	12.6519	0.307378	0.229849
12.7963	12.6524	0.309629	0.226595
12.7968	12.6529	0.310873	0.224711
12.7972	12.6533	0.309914	0.22286
12.7977	12.6538	0.310522	0.223839
12.7982	12.6543	0.310209	0.221206
12.7987	12.6548	0.31093	0.217934
12.7991	12.6552	0.311676	0.216497
12.7996	12.6557	0.310944	0.216788
12.8001	12.6562	0.308942	0.214063
12.8006	12.6567	0.308032	0.215378
12.801	12.6572	0.309551	0.213732
12.8015	12.6576	0.310143	0.212921
12.802	12.6581	0.308774	0.212243
12.8024	12.6586	0.310328	0.213992
12.8029	12.659	0.310539	0.216881
12.8034	12.6595	0.311076	0.215819
12.8039	12.66	0.312153	0.216445
12.8043	12.6604	0.312842	0.218044
12.8048	12.6609	0.310368	0.219936
12.8053	12.6614	0.310371	0.221434
12.8057	12.6619	0.313355	0.222936
12.8062	12.6623	0.310478	0.222181
12.8067	12.6628	0.31066	0.223511
12.8072	12.6632	0.311641	0.228399
12.8076	12.6637	0.311017	0.229619
12.8081	12.6642	0.312111	0.229498
12.8086	12.6647	0.312795	0.231734
12.8091	12.6651	0.314402	0.233039
12.8095	12.6656	0.311719	0.235637
12.81	12.6661	0.312451	0.23886
12.8105	12.6666	0.312808	0.240222
12.8109	12.667	0.312615	0.240242
12.8114	12.6675	0.312978	0.242837
12.8119	12.668	0.313356	0.246152
12.8124	12.6685	0.313086	0.247369
12.8128	12.6689	0.311518	0.248716
12.8133	12.6694	0.314868	0.250598
12.8138	12.6698	0.312066	0.25071
12.8142	12.6703	0.310775	0.25304
12.8147	12.6708	0.312861	0.257944
12.8152	12.6713	0.31354	0.259594
12.8157	12.6717	0.311813	0.257717
12.8161	12.6722	0.311355	0.260742
12.8166	12.6727	0.313148	0.264171
12.8171	12.6731	0.312167	0.265569
12.8176	12.6736	0.311944	0.265345
12.818	12.6741	0.314112	0.26676
12.8185	12.6745	0.314518	0.268298
12.819	12.675	0.310746	0.266916
12.8194	12.6755	0.312953	0.270351
12.8199	12.676	0.313023	0.27041
12.8204	12.6765	0.312918	0.268668
12.8209	12.677	0.31141	0.269631
12.8213	12.6774	0.312503	0.270455
12.8218	12.6779	0.311709	0.271126
12.8223	12.6784	0.312499	0.269956
12.8227	12.6789	0.313751	0.270119
12.8232	12.6793	0.314971	0.270462
12.8237	12.6798	0.313119	0.267709
12.8242	12.6803	0.312683	0.267364
12.8246	12.6807	0.313745	0.263709
12.8251	12.6812	0.31431	0.262016
12.8256	12.6817	0.311919	0.25853
12.8261	12.6822	0.31347	0.25916
12.8265	12.6826	0.3122	0.255123
12.827	12.6831	0.30967	0.250173
12.8275	12.6835	0.312084	0.249005
12.8279	12.684	0.311801	0.248251
12.8284	12.6845	0.31225	0.246761
12.8289	12.685	0.311459	0.243774
12.8294	12.6855	0.312632	0.239955
12.8298	12.6859	0.3148	0.236497
12.8303	12.6864	0.313436	0.234867
12.8308	12.6869	0.3125	0.231229
12.8312	12.6874	0.313865	0.228041
12.8317	12.6879	0.313378	0.22376
12.8322	12.6883	0.314604	0.221926
12.8327	12.6888	0.313216	0.219531
12.8331	12.6893	0.311511	0.218318
12.8336	12.6897	0.312439	0.217042
12.8341	12.6902	0.313968	0.216491
12.8346	12.6906	0.314092	0.21671
12.835	12.6911	0.313501	0.218524
12.8355	12.6916	0.3146	0.22393
12.836	12.6921	0.313494	0.226472
12.8364	12.6925	0.31265	0.229002
12.8369	12.693	0.317975	0.237318
12.8374	12.6935	0.317936	0.243344
12.8379	12.6939	0.312505	0.244719
12.8383	12.6944	0.313515	0.2491
12.8388	12.6949	0.314491	0.250554
12.8393	12.6953	0.314991	0.251372
12.8397	12.6958	0.312323	0.253789
12.8402	12.6963	0.314373	0.257254
12.8407	12.6968	0.312057	0.256221
12.8412	12.6973	0.312273	0.251579
12.8416	12.6977	0.314763	0.252386
12.8421	12.6982	0.314835	0.250251
12.8426	12.6987	0.312568	0.248016
12.8431	12.6991	0.313816	0.245758
12.8435	12.6996	0.315119	0.241
12.844	12.7	0.314266	0.235975
12.8445	12.7005	0.31149	0.233292
12.8449	12.701	0.3129	0.231747
12.8454	12.7015	0.313539	0.228168
12.8459	12.702	0.311079	0.223111
12.8464	12.7024	0.313781	0.222455
12.8468	12.7029	0.315006	0.220991
12.8473	12.7033	0.314415	0.22166
12.8478	12.7038	0.312231	0.223124
12.8482	12.7043	0.31521	0.226017
12.8487	12.7048	0.317723	0.230578
12.8492	12.7053	0.314007	0.235141
12.8497	12.7057	0.316341	0.244004
12.8501	12.7062	0.315639	0.252069
12.8506	12.7067	0.314822	0.259656
12.8511	12.7072	0.318133	0.270554
12.8516	12.7077	0.316952	0.282862
12.852	12.7081	0.316584	0.295013
12.8525	12.7086	0.316763	0.310524
12.853	12.7091	0.318348	0.322164
12.8534	12.7095	0.318671	0.334276
12.8539	12.71	0.317723	0.348368
12.8544	12.7105	0.319144	0.36463
12.8549	12.711	0.318118	0.374991
12.8553	12.7114	0.31728	0.386148
12.8558	12.7119	0.319004	0.398303
12.8563	12.7124	0.319562	0.41142
12.8567	12.7128	0.318527	0.421549
12.8572	12.7133	0.317766	0.428384
12.8577	12.7138	0.319756	0.436237
12.8582	12.7142	0.32066	0.445585
12.8586	12.7147	0.31917	0.454398
12.8591	12.7152	0.316444	0.461694
12.8596	12.7157	0.318063	0.469654
12.8601	12.7162	0.318004	0.477745
12.8605	12.7166	0.320013	0.488688
12.861	12.7171	0.318447	0.496056
12.8615	12.7176	0.31783	0.502608
12.8619	12.7181	0.319372	0.507059
12.8624	12.7185	0.319596	0.507428
12.8629	12.719	0.320242	0.506417
12.8634	12.7194	0.319854	0.503384
12.8638	12.7199	0.318298	0.50028
12.8643	12.7204	0.31876	0.49498
12.8648	12.7209	0.318433	0.491997
12.8652	12.7213	0.320288	0.495285
12.8657	12.7218	0.316824	0.503465
12.8662	12.7223	0.315444	0.512879
12.8667	12.7227	0.317555	0.537603
12.8671	12.7232	0.317457	0.571245
12.8676	12.7237	0.318642	0.611555
12.8681	12.7241	0.316931	0.661115
12.8686	12.7246	0.316343	0.715882
12.869	12.7251	0.314613	0.760524
12.8695	12.7256	0.315729	0.801868
12.87	12.726	0.318361	0.839295
12.8704	12.7265	0.317586	0.861876
12.8709	12.727	0.316686	0.880532
12.8714	12.7275	0.318639	0.896476
12.8719	12.7279	0.318761	0.910373
12.8723	12.7284	0.320298	0.919439
12.8728	12.7289	0.319549	0.927526
12.8733	12.7293	0.318994	0.932682
12.8737	12.7298	0.317656	0.934242
12.8742	12.7303	0.319594	0.939887
12.8747	12.7308	0.322075	0.947786
12.8752	12.7312	0.324489	0.952553
12.8756	12.7317	0.318395	0.951026
12.8761	12.7322	0.319877	0.951242
12.8766	12.7327	0.321066	0.959197
12.8771	12.7331	0.323321	0.959617
12.8775	12.7336	0.321772	0.960943
12.878	12.7341	0.321579	0.965211
12.8785	12.7345	0.319041	0.962885
12.8789	12.735	0.319657	0.961847
12.8794	12.7355	0.325326	0.970378
12.8799	12.736	0.321824	0.972885
12.8804	12.7365	0.321034	0.970067
12.8808	12.7369	0.320215	0.969498
12.8813	12.7374	0.322837	0.975647
12.8818	12.7379	0.325277	0.975112
12.8822	12.7384	0.323692	0.978932
12.8827	12.7388	0.325015	0.983493
12.8832	12.7393	0.323054	0.979785
12.8837	12.7398	0.322435	0.976201
12.8841	12.7402	0.325959	0.983197
12.8846	12.7407	0.324435	0.983148
12.8851	12.7412	0.322587	0.979106
12.8856	12.7417	0.320899	0.98041
12.886	12.7421	0.323382	0.981209
12.8865	12.7426	0.32482	0.980659
12.887	12.7431	0.325109	0.986791
12.8874	12.7435	0.324311	0.990481
12.8879	12.744	0.324505	0.987895
12.8884	12.7445	0.324402	0.984774
12.8889	12.745	0.327184	0.990869
12.8893	12.7454	0.326683	0.99301
12.8898	12.7459	0.325899	0.99176
12.8903	12.7464	0.325243	0.991031
12.8907	12.7469	0.326481	0.991303
12.8912	12.7473	0.326393	0.986525
12.8917	12.7478	0.326517	0.99422
12.8922	12.7483	0.326059	0.997295
12.8926	12.7487	0.324117	0.99186
12.8931	12.7492	0.323693	0.988728
12.8936	12.7497	0.327967	0.997034
12.8941	12.7501	0.327498	0.998232
12.8945	12.7506	0.324858	0.995615
12.895	12.7511	0.325458	0.996293
12.8955	12.7516	0.327634	0.997067
12.8959	12.752	0.326673	0.993149
12.8964	12.7525	0.32815	0.997535
12.8969	12.7529	0.327385	1.00381
12.8974	12.7534	0.32555	0.994375
12.8978	12.7539	0.323544	0.991879
12.8983	12.7543	0.326237	0.995737
12.8988	12.7548	0.327287	0.998969
