# 1304     AichiSR QXAFS
# Start     : 8.9544
# End       : 9.0544
# Dir       : Forward
# Points    : 300
# ScanTime  : 1.01549
# Date      : 13.04.23 22:23
# Ring Cur. : 25.5[mA]
12.7557	12.7557	0.402119	1.23217
12.7562	12.7552	0.402449	1.23081
12.7566	12.7548	0.401868	1.22776
12.7571	12.7543	0.40481	1.2265
12.7576	12.7538	0.404907	1.22971
12.7581	12.7533	0.40191	1.22846
12.7585	12.7529	0.402278	1.2271
12.759	12.7524	0.402097	1.22427
12.7595	12.752	0.403672	1.22437
12.7599	12.7515	0.402579	1.22823
12.7604	12.751	0.402597	1.22737
12.7609	12.7505	0.402098	1.22489
12.7614	12.7501	0.402292	1.22278
12.7618	12.7496	0.403482	1.22399
12.7623	12.7491	0.402302	1.22379
12.7628	12.7487	0.403192	1.22544
12.7632	12.7482	0.400951	1.22308
12.7637	12.7478	0.401082	1.22112
12.7642	12.7473	0.402511	1.22171
12.7647	12.7468	0.40285	1.22415
12.7651	12.7463	0.401298	1.22481
12.7656	12.7459	0.401845	1.21986
12.7661	12.7454	0.400117	1.22029
12.7666	12.7449	0.403173	1.22092
12.767	12.7444	0.402566	1.22191
12.7675	12.7439	0.399991	1.22505
12.768	12.7435	0.399243	1.22041
12.7684	12.743	0.399966	1.21625
12.7689	12.7425	0.402418	1.21584
12.7694	12.7421	0.401716	1.21792
12.7699	12.7416	0.400854	1.21774
12.7703	12.7411	0.400407	1.21721
12.7708	12.7407	0.40118	1.21496
12.7713	12.7402	0.403224	1.21451
12.7717	12.7397	0.401234	1.21589
12.7722	12.7392	0.400489	1.2141
12.7727	12.7388	0.400462	1.21386
12.7732	12.7383	0.400308	1.21027
12.7736	12.7378	0.400741	1.2118
12.7741	12.7374	0.400477	1.20962
12.7746	12.7369	0.400805	1.21184
12.7751	12.7364	0.400133	1.20964
12.7755	12.7359	0.399963	1.20642
12.776	12.7354	0.401309	1.20422
12.7765	12.735	0.400999	1.20711
12.7769	12.7345	0.399099	1.20326
12.7774	12.734	0.399339	1.20188
12.7779	12.7335	0.399923	1.19655
12.7784	12.7331	0.400166	1.19373
12.7788	12.7326	0.399964	1.19624
12.7793	12.7321	0.398902	1.19289
12.7798	12.7317	0.399242	1.18743
12.7802	12.7312	0.399703	1.18694
12.7807	12.7307	0.400066	1.1838
12.7812	12.7302	0.39918	1.18129
12.7817	12.7298	0.399341	1.17776
12.7821	12.7293	0.398826	1.17071
12.7826	12.7288	0.397761	1.16428
12.7831	12.7284	0.400734	1.15582
12.7836	12.7279	0.398772	1.15207
12.784	12.7274	0.396947	1.14316
12.7845	12.7269	0.398302	1.12697
12.785	12.7265	0.39588	1.10995
12.7854	12.726	0.396689	1.08959
12.7859	12.7255	0.395138	1.06167
12.7864	12.725	0.393661	1.02517
12.7869	12.7245	0.392603	0.976974
12.7873	12.7241	0.393783	0.922197
12.7878	12.7236	0.394939	0.862883
12.7883	12.7231	0.396245	0.802517
12.7887	12.7227	0.394457	0.747981
12.7892	12.7222	0.39785	0.693626
12.7897	12.7218	0.397701	0.657304
12.7902	12.7213	0.397745	0.636494
12.7906	12.7208	0.398072	0.623991
12.7911	12.7203	0.396849	0.61832
12.7916	12.7199	0.396757	0.616422
12.7921	12.7194	0.397188	0.617763
12.7925	12.7189	0.398389	0.620719
12.793	12.7185	0.398389	0.629424
12.7935	12.718	0.396566	0.632684
12.7939	12.7175	0.397397	0.631048
12.7944	12.7171	0.39728	0.627809
12.7949	12.7166	0.399007	0.620776
12.7954	12.7161	0.398513	0.613402
12.7958	12.7156	0.396203	0.603333
12.7963	12.7151	0.396195	0.590237
12.7968	12.7147	0.397736	0.578579
12.7972	12.7142	0.396676	0.567802
12.7977	12.7137	0.398163	0.5598
12.7982	12.7132	0.394159	0.54889
12.7987	12.7128	0.396814	0.537465
12.7991	12.7123	0.397679	0.524149
12.7996	12.7119	0.395842	0.515159
12.8001	12.7114	0.397421	0.504241
12.8006	12.7109	0.395837	0.488261
12.801	12.7104	0.395752	0.473983
12.8015	12.7099	0.39714	0.457553
12.802	12.7095	0.39707	0.442145
12.8024	12.709	0.397108	0.427122
12.8029	12.7086	0.39479	0.409549
12.8034	12.7081	0.395847	0.39114
12.8039	12.7076	0.395086	0.375462
12.8043	12.7071	0.396088	0.361681
12.8048	12.7066	0.397146	0.346911
12.8053	12.7062	0.39506	0.333371
12.8057	12.7057	0.396131	0.319656
12.8062	12.7052	0.39701	0.308661
12.8067	12.7047	0.39541	0.298266
12.8072	12.7042	0.39551	0.293538
12.8076	12.7038	0.395321	0.286747
12.8081	12.7033	0.393952	0.280525
12.8086	12.7028	0.396971	0.276766
12.8091	12.7024	0.395341	0.276701
12.8095	12.7019	0.39503	0.279118
12.81	12.7014	0.394003	0.281736
12.8105	12.701	0.394498	0.28242
12.8109	12.7005	0.394891	0.284921
12.8114	12.7	0.394751	0.289858
12.8119	12.6995	0.39448	0.295874
12.8124	12.6991	0.392835	0.299274
12.8128	12.6986	0.392991	0.303157
12.8133	12.6982	0.392489	0.306084
12.8138	12.6977	0.393274	0.310699
12.8142	12.6972	0.394697	0.316197
12.8147	12.6967	0.392542	0.318556
12.8152	12.6963	0.39178	0.316678
12.8157	12.6958	0.394711	0.317664
12.8161	12.6953	0.392581	0.316726
12.8166	12.6948	0.39303	0.317743
12.8171	12.6943	0.392296	0.314168
12.8176	12.6939	0.391617	0.310142
12.818	12.6934	0.39173	0.30533
12.8185	12.6929	0.391748	0.300915
12.819	12.6925	0.391724	0.296962
12.8194	12.692	0.390082	0.290236
12.8199	12.6916	0.391893	0.284408
12.8204	12.6911	0.392282	0.278851
12.8209	12.6906	0.391048	0.274617
12.8213	12.6901	0.39179	0.2737
12.8218	12.6897	0.391053	0.270714
12.8223	12.6892	0.390701	0.267909
12.8227	12.6887	0.391386	0.268505
12.8232	12.6883	0.390206	0.271223
12.8237	12.6878	0.390559	0.274689
12.8242	12.6873	0.389479	0.276436
12.8246	12.6868	0.390108	0.279184
12.8251	12.6864	0.3912	0.284036
12.8256	12.6859	0.394347	0.290858
12.8261	12.6854	0.390543	0.294175
12.8265	12.6849	0.387401	0.296537
12.827	12.6844	0.387975	0.298494
12.8275	12.684	0.39003	0.300503
12.8279	12.6835	0.388173	0.30644
12.8284	12.683	0.388073	0.309994
12.8289	12.6826	0.387475	0.312412
12.8294	12.6821	0.388254	0.313045
12.8298	12.6816	0.391257	0.316687
12.8303	12.6812	0.390561	0.321449
12.8308	12.6807	0.390859	0.325895
12.8312	12.6802	0.38897	0.327044
12.8317	12.6797	0.38939	0.327321
12.8322	12.6793	0.391326	0.329928
12.8327	12.6788	0.390245	0.334596
12.8331	12.6783	0.39024	0.335263
12.8336	12.6779	0.388523	0.336174
12.8341	12.6774	0.388973	0.335155
12.8346	12.6769	0.391915	0.335667
12.835	12.6764	0.391022	0.336228
12.8355	12.6759	0.391087	0.338052
12.836	12.6755	0.38949	0.336899
12.8364	12.675	0.39012	0.332929
12.8369	12.6745	0.391614	0.333128
12.8374	12.674	0.389634	0.334183
12.8379	12.6736	0.391856	0.3343
12.8383	12.6731	0.390478	0.33186
12.8388	12.6726	0.390592	0.330108
12.8393	12.6722	0.391323	0.329315
12.8397	12.6717	0.390513	0.327609
12.8402	12.6712	0.391297	0.32705
12.8407	12.6707	0.39274	0.323455
12.8412	12.6703	0.390365	0.320497
12.8416	12.6698	0.392989	0.319244
12.8421	12.6693	0.391851	0.318759
12.8426	12.6689	0.391312	0.316613
12.8431	12.6684	0.391357	0.312516
12.8435	12.668	0.391145	0.309935
12.844	12.6675	0.394402	0.30812
12.8445	12.667	0.392203	0.305655
12.8449	12.6665	0.392648	0.304977
12.8454	12.666	0.392127	0.302822
12.8459	12.6656	0.392206	0.297343
12.8464	12.6651	0.393118	0.295245
12.8468	12.6646	0.391923	0.295688
12.8473	12.6641	0.391157	0.293017
12.8478	12.6637	0.391608	0.289571
12.8482	12.6632	0.393424	0.287322
12.8487	12.6627	0.393722	0.285698
12.8492	12.6623	0.394109	0.285305
12.8497	12.6618	0.392861	0.2837
12.8501	12.6614	0.392311	0.281227
12.8506	12.6609	0.393651	0.277821
12.8511	12.6604	0.393856	0.276948
12.8516	12.6599	0.392402	0.274767
12.852	12.6595	0.391565	0.274479
12.8525	12.659	0.392858	0.272758
12.853	12.6585	0.391828	0.268841
12.8534	12.6581	0.393129	0.269561
12.8539	12.6576	0.391662	0.269976
12.8544	12.6571	0.393053	0.270823
12.8549	12.6566	0.391791	0.270558
12.8553	12.6562	0.392504	0.267642
12.8558	12.6557	0.393796	0.270475
12.8563	12.6552	0.393199	0.27254
12.8567	12.6547	0.391899	0.273881
12.8572	12.6542	0.392606	0.276734
12.8577	12.6538	0.391942	0.276641
12.8582	12.6533	0.394781	0.277845
12.8586	12.6528	0.393317	0.280773
12.8591	12.6524	0.392541	0.285261
12.8596	12.6519	0.393866	0.285628
12.8601	12.6514	0.391061	0.28682
12.8605	12.6509	0.39426	0.290247
12.861	12.6505	0.393817	0.294053
12.8615	12.65	0.393868	0.296259
12.8619	12.6495	0.393362	0.298155
12.8624	12.649	0.393873	0.299478
12.8629	12.6486	0.393812	0.301752
12.8634	12.6481	0.392239	0.305203
12.8638	12.6476	0.391465	0.305899
12.8643	12.6472	0.392271	0.307536
12.8648	12.6467	0.390562	0.308008
12.8652	12.6462	0.38954	0.309613
12.8657	12.6457	0.389989	0.311663
12.8662	12.6452	0.388894	0.313773
12.8667	12.6448	0.389119	0.313645
12.8671	12.6443	0.390033	0.314264
12.8676	12.6438	0.391622	0.315149
12.8681	12.6433	0.390126	0.317488
12.8686	12.6429	0.389244	0.320112
12.869	12.6424	0.393488	0.32031
12.8695	12.642	0.39187	0.317804
12.87	12.6415	0.392667	0.3202
12.8704	12.641	0.394384	0.321763
12.8709	12.6405	0.39348	0.321294
12.8714	12.6401	0.392955	0.319277
12.8719	12.6396	0.393208	0.319528
12.8723	12.6391	0.394862	0.320258
12.8728	12.6387	0.394082	0.319376
12.8733	12.6382	0.391818	0.319948
12.8737	12.6377	0.393503	0.31933
12.8742	12.6373	0.392608	0.315589
12.8747	12.6368	0.392977	0.31637
12.8752	12.6363	0.393266	0.317037
12.8756	12.6358	0.39244	0.316096
12.8761	12.6354	0.392432	0.314883
12.8766	12.6349	0.393858	0.311887
12.8771	12.6344	0.393556	0.311935
12.8775	12.6339	0.394128	0.314277
12.878	12.6335	0.393429	0.31273
12.8785	12.633	0.393496	0.312398
12.8789	12.6325	0.392829	0.310038
12.8794	12.6321	0.392356	0.312457
12.8799	12.6316	0.392791	0.313193
12.8804	12.6311	0.391724	0.313735
12.8808	12.6306	0.39207	0.312764
12.8813	12.6302	0.390752	0.311321
12.8818	12.6297	0.391818	0.313537
12.8822	12.6292	0.392209	0.315386
12.8827	12.6288	0.390472	0.313416
12.8832	12.6283	0.391312	0.313374
12.8837	12.6278	0.39206	0.311764
12.8841	12.6274	0.392646	0.312381
12.8846	12.6269	0.391375	0.313424
12.8851	12.6264	0.391465	0.313311
12.8856	12.6259	0.391303	0.311013
12.886	12.6254	0.392935	0.311269
12.8865	12.625	0.392708	0.310984
12.887	12.6245	0.390715	0.311127
12.8874	12.624	0.3914	0.31047
12.8879	12.6235	0.390532	0.308392
12.8884	12.6231	0.392902	0.306787
12.8889	12.6226	0.393239	0.30585
12.8893	12.6221	0.392299	0.308181
12.8898	12.6217	0.389577	0.307385
12.8903	12.6212	0.390456	0.304964
12.8907	12.6207	0.391552	0.303184
12.8912	12.6202	0.392272	0.304834
12.8917	12.6198	0.393007	0.304593
12.8922	12.6193	0.390197	0.304921
12.8926	12.6188	0.390307	0.302195
12.8931	12.6184	0.391362	0.302775
12.8936	12.6179	0.389678	0.303097
12.8941	12.6174	0.39114	0.303955
12.8945	12.6169	0.388299	0.303915
12.895	12.6165	0.389493	0.301124
12.8955	12.616	0.390963	0.301222
12.8959	12.6155	0.391486	0.301862
12.8964	12.615	0.390207	0.302173
12.8969	12.6145	0.389526	0.303187
12.8974	12.6141	0.389512	0.299884
12.8978	12.6136	0.389832	0.299534
12.8983	12.6131	0.389521	0.299935
12.8988	12.6127	0.390159	0.300885
