# 1304     AichiSR QXAFS
# Start     : 8.9544
# End       : 9.0544
# Dir       : Forward
# Points    : 300
# ScanTime  : 1.01549
# Date      : 13.04.23 22:30
# Ring Cur. : 25.6[mA]
12.7557	12.7558	0.4042	1.23396
12.7562	12.7553	0.406639	1.23502
12.7566	12.7548	0.405825	1.23225
12.7571	12.7543	0.406269	1.23763
12.7576	12.7539	0.40505	1.23627
12.7581	12.7534	0.404469	1.23053
12.7585	12.7529	0.40528	1.23213
12.759	12.7525	0.404045	1.232
12.7595	12.752	0.404268	1.2353
12.7599	12.7516	0.403571	1.23199
12.7604	12.7511	0.403486	1.22956
12.7609	12.7506	0.405715	1.22898
12.7614	12.7501	0.40383	1.22959
12.7618	12.7497	0.405171	1.2348
12.7623	12.7492	0.402976	1.23147
12.7628	12.7487	0.404566	1.2286
12.7632	12.7483	0.404055	1.22933
12.7637	12.7478	0.404638	1.23243
12.7642	12.7473	0.404836	1.23124
12.7647	12.7469	0.404046	1.23199
12.7651	12.7464	0.401934	1.22605
12.7656	12.7459	0.402843	1.2245
12.7661	12.7454	0.404651	1.22789
12.7666	12.7449	0.405239	1.22791
12.767	12.7445	0.40232	1.22904
12.7675	12.744	0.402269	1.22436
12.768	12.7435	0.404982	1.22259
12.7684	12.7431	0.404616	1.22473
12.7689	12.7426	0.402945	1.22476
12.7694	12.7421	0.403582	1.22541
12.7699	12.7417	0.402939	1.22293
12.7703	12.7412	0.40364	1.22009
12.7708	12.7407	0.402747	1.22044
12.7713	12.7402	0.401254	1.22261
12.7717	12.7398	0.402664	1.21728
12.7722	12.7393	0.400728	1.21729
12.7727	12.7388	0.40302	1.21899
12.7732	12.7384	0.402202	1.21694
12.7736	12.7379	0.40444	1.22008
12.7741	12.7374	0.40071	1.21763
12.7746	12.7369	0.400491	1.21368
12.7751	12.7365	0.403195	1.20947
12.7755	12.736	0.401664	1.21067
12.776	12.7355	0.402723	1.21143
12.7765	12.735	0.39929	1.20937
12.7769	12.7345	0.400895	1.20347
12.7774	12.7341	0.40261	1.20397
12.7779	12.7336	0.401803	1.20286
12.7784	12.7331	0.399726	1.20222
12.7788	12.7326	0.399808	1.201
12.7793	12.7322	0.401118	1.19649
12.7798	12.7317	0.400821	1.19411
12.7802	12.7312	0.401357	1.19147
12.7807	12.7308	0.401026	1.19024
12.7812	12.7303	0.400283	1.18603
12.7817	12.7298	0.400282	1.1789
12.7821	12.7293	0.401686	1.1751
12.7826	12.7289	0.399777	1.16986
12.7831	12.7284	0.401895	1.1654
12.7836	12.7279	0.400049	1.15523
12.784	12.7275	0.399931	1.14199
12.7845	12.727	0.398536	1.12981
12.785	12.7265	0.398717	1.11709
12.7854	12.726	0.396022	1.09559
12.7859	12.7256	0.395429	1.06584
12.7864	12.7251	0.393169	1.02481
12.7869	12.7246	0.39418	0.981663
12.7873	12.7241	0.394351	0.929145
12.7878	12.7237	0.395649	0.868419
12.7883	12.7232	0.39613	0.798333
12.7887	12.7227	0.397386	0.74054
12.7892	12.7223	0.398251	0.692375
12.7897	12.7218	0.398366	0.659639
12.7902	12.7213	0.400066	0.637139
12.7906	12.7209	0.398355	0.622124
12.7911	12.7204	0.397462	0.614551
12.7916	12.7199	0.39953	0.615602
12.7921	12.7195	0.398921	0.620679
12.7925	12.719	0.399527	0.62722
12.793	12.7185	0.397642	0.628605
12.7935	12.7181	0.398078	0.632853
12.7939	12.7176	0.400247	0.632427
12.7944	12.7171	0.39778	0.631213
12.7949	12.7166	0.397841	0.626392
12.7954	12.7162	0.396687	0.614378
12.7958	12.7157	0.395704	0.599653
12.7963	12.7152	0.398995	0.589909
12.7968	12.7147	0.398059	0.583025
12.7972	12.7142	0.397511	0.571263
12.7977	12.7138	0.396953	0.558741
12.7982	12.7133	0.397971	0.548262
12.7987	12.7128	0.398081	0.539219
12.7991	12.7124	0.397344	0.530458
12.7996	12.7119	0.397762	0.519752
12.8001	12.7114	0.395932	0.505047
12.8006	12.711	0.394957	0.487481
12.801	12.7105	0.39924	0.474083
12.8015	12.71	0.398089	0.46187
12.802	12.7095	0.396756	0.445118
12.8024	12.7091	0.395205	0.424992
12.8029	12.7086	0.397328	0.406558
12.8034	12.7081	0.398231	0.39139
12.8039	12.7077	0.398553	0.377672
12.8043	12.7072	0.397261	0.363415
12.8048	12.7067	0.394811	0.346645
12.8053	12.7062	0.394423	0.331494
12.8057	12.7057	0.397658	0.320777
12.8062	12.7053	0.396882	0.310659
12.8067	12.7048	0.395185	0.300996
12.8072	12.7043	0.394458	0.292333
12.8076	12.7038	0.396724	0.28544
12.8081	12.7033	0.396352	0.281498
12.8086	12.7029	0.396846	0.280137
12.8091	12.7024	0.396017	0.280288
12.8095	12.702	0.395611	0.279049
12.81	12.7015	0.394026	0.279521
12.8105	12.701	0.396403	0.282357
12.8109	12.7005	0.397121	0.28757
12.8114	12.7001	0.394029	0.292359
12.8119	12.6996	0.394191	0.295874
12.8124	12.6991	0.39404	0.298548
12.8128	12.6987	0.395258	0.303908
12.8133	12.6982	0.395932	0.309728
12.8138	12.6977	0.393715	0.314753
12.8142	12.6973	0.39304	0.315557
12.8147	12.6968	0.394271	0.315616
12.8152	12.6963	0.394574	0.318239
12.8157	12.6958	0.394466	0.319972
12.8161	12.6954	0.393585	0.319547
12.8166	12.6949	0.39363	0.318824
12.8171	12.6944	0.391978	0.314956
12.8176	12.6939	0.393181	0.311633
12.818	12.6935	0.393864	0.307635
12.8185	12.693	0.391549	0.302852
12.819	12.6925	0.393278	0.296539
12.8194	12.6921	0.391559	0.288953
12.8199	12.6916	0.392685	0.284625
12.8204	12.6911	0.394145	0.281552
12.8209	12.6907	0.390973	0.277263
12.8213	12.6902	0.393119	0.272013
12.8218	12.6897	0.39223	0.269102
12.8223	12.6893	0.393043	0.268309
12.8227	12.6888	0.391527	0.270658
12.8232	12.6883	0.391015	0.272673
12.8237	12.6879	0.392897	0.27429
12.8242	12.6874	0.389765	0.274968
12.8246	12.6869	0.391511	0.28079
12.8251	12.6864	0.391359	0.285811
12.8256	12.6859	0.38916	0.28977
12.8261	12.6855	0.387325	0.291974
12.8265	12.685	0.388838	0.295441
12.827	12.6845	0.393144	0.302342
12.8275	12.684	0.393198	0.306194
12.8279	12.6835	0.389548	0.306756
12.8284	12.6831	0.389343	0.309243
12.8289	12.6826	0.389564	0.310664
12.8294	12.6822	0.390204	0.314491
12.8298	12.6817	0.390844	0.32035
12.8303	12.6812	0.388188	0.32205
12.8308	12.6807	0.389945	0.323503
12.8312	12.6803	0.390616	0.327282
12.8317	12.6798	0.390377	0.329644
12.8322	12.6793	0.393037	0.331977
12.8327	12.6789	0.390282	0.335108
12.8331	12.6784	0.389779	0.334472
12.8336	12.6779	0.390024	0.334817
12.8341	12.6774	0.39108	0.336305
12.8346	12.677	0.391168	0.338552
12.835	12.6765	0.390164	0.338797
12.8355	12.676	0.390927	0.336326
12.836	12.6755	0.39025	0.335602
12.8364	12.675	0.39005	0.334288
12.8369	12.6746	0.391255	0.336721
12.8374	12.6741	0.390448	0.33524
12.8379	12.6736	0.389958	0.333081
12.8383	12.6731	0.390799	0.330627
12.8388	12.6727	0.391722	0.330332
12.8393	12.6722	0.391924	0.330591
12.8397	12.6717	0.389942	0.328974
12.8402	12.6713	0.392324	0.326357
12.8407	12.6708	0.392529	0.322619
12.8412	12.6703	0.391956	0.321359
12.8416	12.6699	0.391707	0.320928
12.8421	12.6694	0.392589	0.318953
12.8426	12.6689	0.391339	0.315445
12.8431	12.6685	0.393097	0.311818
12.8435	12.668	0.394086	0.311014
12.844	12.6675	0.39124	0.31042
12.8445	12.6671	0.390375	0.306806
12.8449	12.6666	0.391687	0.303857
12.8454	12.6661	0.392437	0.300404
12.8459	12.6656	0.392507	0.297888
12.8464	12.6651	0.39335	0.298889
12.8468	12.6647	0.392684	0.296077
12.8473	12.6642	0.392913	0.291631
12.8478	12.6637	0.392297	0.289695
12.8482	12.6633	0.394616	0.288616
12.8487	12.6628	0.393977	0.288049
12.8492	12.6623	0.392495	0.28487
12.8497	12.6619	0.392862	0.283126
12.8501	12.6614	0.394329	0.279966
12.8506	12.6609	0.393377	0.279014
12.8511	12.6604	0.393006	0.278234
12.8516	12.66	0.391548	0.273916
12.852	12.6595	0.392316	0.273948
12.8525	12.659	0.393735	0.271135
12.853	12.6586	0.392616	0.271623
12.8534	12.6581	0.393074	0.27152
12.8539	12.6576	0.391872	0.27082
12.8544	12.6572	0.392419	0.270552
12.8549	12.6567	0.39362	0.269828
12.8553	12.6562	0.392959	0.270274
12.8558	12.6557	0.393642	0.272639
12.8563	12.6552	0.393366	0.273794
12.8567	12.6548	0.391548	0.273693
12.8572	12.6543	0.392988	0.274859
12.8577	12.6538	0.39362	0.27696
12.8582	12.6533	0.394718	0.280538
12.8586	12.6529	0.392814	0.281501
12.8591	12.6524	0.392671	0.282967
12.8596	12.6519	0.394693	0.285219
12.8601	12.6515	0.393785	0.28837
12.8605	12.651	0.394647	0.291619
12.861	12.6505	0.39512	0.294592
12.8615	12.65	0.39325	0.295577
12.8619	12.6496	0.393503	0.297332
12.8624	12.6491	0.394366	0.300206
12.8629	12.6486	0.393328	0.304122
12.8634	12.6482	0.393013	0.30596
12.8638	12.6477	0.392686	0.306927
12.8643	12.6472	0.3928	0.30781
12.8648	12.6467	0.390854	0.308632
12.8652	12.6463	0.391641	0.312142
12.8657	12.6458	0.388813	0.312127
12.8662	12.6453	0.388372	0.311984
12.8667	12.6448	0.390248	0.313254
12.8671	12.6443	0.390375	0.313933
12.8676	12.6439	0.391171	0.317966
12.8681	12.6434	0.392428	0.317754
12.8686	12.6429	0.3911	0.317752
12.869	12.6425	0.393801	0.31732
12.8695	12.642	0.393281	0.319769
12.87	12.6415	0.39289	0.321336
12.8704	12.6411	0.393544	0.32227
12.8709	12.6406	0.393249	0.320244
12.8714	12.6401	0.393612	0.318571
12.8719	12.6397	0.394159	0.319169
12.8723	12.6392	0.393389	0.321231
12.8728	12.6387	0.393291	0.319648
12.8733	12.6383	0.392683	0.316451
12.8737	12.6378	0.392179	0.317072
12.8742	12.6373	0.391705	0.316754
12.8747	12.6368	0.392843	0.316608
12.8752	12.6364	0.391457	0.316882
12.8756	12.6359	0.391342	0.314199
12.8761	12.6354	0.393565	0.313174
12.8766	12.6349	0.394371	0.31557
12.8771	12.6345	0.393422	0.316478
12.8775	12.634	0.391796	0.313984
12.878	12.6335	0.392476	0.312904
12.8785	12.6331	0.394146	0.311737
12.8789	12.6326	0.391455	0.312978
12.8794	12.6321	0.391623	0.314438
12.8799	12.6317	0.39351	0.31379
12.8804	12.6312	0.392125	0.310964
12.8808	12.6307	0.394107	0.31209
12.8813	12.6302	0.393032	0.313126
12.8818	12.6298	0.392825	0.315449
12.8822	12.6293	0.39241	0.314553
12.8827	12.6288	0.39193	0.312119
12.8832	12.6284	0.395484	0.313928
12.8837	12.6279	0.391984	0.314908
12.8841	12.6274	0.39143	0.316066
12.8846	12.6269	0.391668	0.314515
12.8851	12.6265	0.391627	0.3121
12.8856	12.626	0.391635	0.311916
12.886	12.6255	0.392291	0.311273
12.8865	12.625	0.391467	0.312009
12.887	12.6245	0.390287	0.311309
12.8874	12.6241	0.392192	0.308695
12.8879	12.6236	0.39254	0.308181
12.8884	12.6231	0.391792	0.307555
12.8889	12.6226	0.392343	0.308798
12.8893	12.6222	0.392496	0.308287
12.8898	12.6217	0.390766	0.304361
12.8903	12.6212	0.391482	0.304779
12.8907	12.6208	0.391482	0.305123
12.8912	12.6203	0.389594	0.30508
12.8917	12.6198	0.388998	0.305077
12.8922	12.6193	0.391947	0.302635
12.8926	12.6189	0.391536	0.303198
12.8931	12.6184	0.390033	0.303599
12.8936	12.6179	0.390389	0.30491
12.8941	12.6175	0.390484	0.303885
12.8945	12.617	0.388232	0.301957
12.895	12.6165	0.391575	0.302862
12.8955	12.616	0.391043	0.304924
12.8959	12.6156	0.390052	0.303899
12.8964	12.6151	0.390052	0.303593
12.8969	12.6146	0.390308	0.302668
12.8974	12.6141	0.390704	0.301559
12.8978	12.6137	0.389129	0.30138
12.8983	12.6132	0.390703	0.303005
12.8988	12.6127	0.390601	0.300284
