# 1304     AichiSR QXAFS
# Start     : 8.9544
# End       : 9.0544
# Dir       : Backward
# Points    : 300
# ScanTime  : 1.01549
# Date      : 13.04.23 22:28
# Ring Cur. : 25.5[mA]
12.7557	12.6118	0.296977	0.225568
12.7562	12.6123	0.297259	0.226463
12.7566	12.6127	0.298283	0.229842
12.7571	12.6132	0.299609	0.232398
12.7576	12.6136	0.297828	0.230051
12.7581	12.6141	0.296759	0.228437
12.7585	12.6146	0.301751	0.232417
12.759	12.6151	0.300328	0.232202
12.7595	12.6155	0.297702	0.232995
12.7599	12.616	0.299939	0.234118
12.7604	12.6165	0.299519	0.231352
12.7609	12.617	0.30093	0.231888
12.7614	12.6174	0.300001	0.234233
12.7618	12.6179	0.30079	0.237146
12.7623	12.6184	0.29889	0.234326
12.7628	12.6189	0.300426	0.233354
12.7632	12.6193	0.302664	0.234818
12.7637	12.6198	0.300221	0.234739
12.7642	12.6203	0.299002	0.234645
12.7647	12.6207	0.300594	0.23544
12.7651	12.6212	0.299183	0.23313
12.7656	12.6217	0.299017	0.232736
12.7661	12.6222	0.30108	0.236717
12.7666	12.6226	0.300921	0.23801
12.767	12.6231	0.300005	0.23586
12.7675	12.6236	0.298337	0.233394
12.768	12.624	0.303168	0.236888
12.7684	12.6245	0.301337	0.239067
12.7689	12.625	0.299146	0.238266
12.7694	12.6255	0.300093	0.240006
12.7699	12.626	0.300428	0.238195
12.7703	12.6264	0.301965	0.239154
12.7708	12.6269	0.300816	0.240455
12.7713	12.6274	0.301319	0.242943
12.7717	12.6279	0.299908	0.240585
12.7722	12.6283	0.300992	0.240757
12.7727	12.6288	0.303112	0.240994
12.7732	12.6293	0.301153	0.242418
12.7736	12.6297	0.301029	0.244034
12.7741	12.6302	0.301687	0.241334
12.7746	12.6307	0.302869	0.241187
12.7751	12.6312	0.303031	0.240905
12.7755	12.6316	0.302331	0.242685
12.776	12.6321	0.301933	0.244274
12.7765	12.6326	0.300091	0.241013
12.7769	12.633	0.302118	0.239584
12.7774	12.6335	0.303213	0.24032
12.7779	12.634	0.303973	0.24187
12.7784	12.6344	0.301665	0.242022
12.7788	12.6349	0.301614	0.241085
12.7793	12.6354	0.302633	0.241971
12.7798	12.6359	0.302844	0.242521
12.7802	12.6363	0.304955	0.244724
12.7807	12.6368	0.301986	0.243772
12.7812	12.6373	0.301802	0.243559
12.7817	12.6378	0.303813	0.244046
12.7821	12.6382	0.305649	0.246558
12.7826	12.6387	0.303133	0.248223
12.7831	12.6392	0.303085	0.24845
12.7836	12.6396	0.304213	0.247277
12.784	12.6401	0.303528	0.246392
12.7845	12.6406	0.30326	0.246238
12.785	12.641	0.304328	0.24935
12.7854	12.6415	0.30394	0.249604
12.7859	12.642	0.301664	0.245528
12.7864	12.6424	0.302247	0.245701
12.7869	12.6429	0.30567	0.248231
12.7873	12.6434	0.304743	0.248231
12.7878	12.6438	0.303495	0.247552
12.7883	12.6443	0.302991	0.245949
12.7887	12.6448	0.301948	0.244477
12.7892	12.6453	0.301541	0.243281
12.7897	12.6457	0.304186	0.245544
12.7902	12.6462	0.303031	0.243866
12.7906	12.6467	0.30069	0.240664
12.7911	12.6472	0.303388	0.240817
12.7916	12.6477	0.305331	0.241102
12.7921	12.6482	0.30393	0.23937
12.7925	12.6486	0.302951	0.238406
12.793	12.6491	0.304351	0.23616
12.7935	12.6496	0.304463	0.233433
12.7939	12.65	0.305042	0.23223
12.7944	12.6505	0.307753	0.232535
12.7949	12.651	0.30675	0.231224
12.7954	12.6515	0.304486	0.226475
12.7958	12.6519	0.305654	0.224731
12.7963	12.6524	0.30772	0.225428
12.7968	12.6529	0.306876	0.223922
12.7972	12.6533	0.305055	0.221916
12.7977	12.6538	0.304764	0.218265
12.7982	12.6543	0.30545	0.216867
12.7987	12.6547	0.307024	0.216163
12.7991	12.6552	0.307541	0.217119
12.7996	12.6557	0.305822	0.21502
12.8001	12.6562	0.30408	0.212712
12.8006	12.6567	0.306495	0.210456
12.801	12.6571	0.307257	0.211204
12.8015	12.6576	0.308063	0.212959
12.802	12.6581	0.306824	0.213033
12.8024	12.6586	0.306493	0.212679
12.8029	12.659	0.305583	0.210574
12.8034	12.6595	0.307006	0.212336
12.8039	12.6599	0.307012	0.215353
12.8043	12.6604	0.307761	0.217744
12.8048	12.6609	0.306191	0.214845
12.8053	12.6614	0.307994	0.216436
12.8057	12.6618	0.306511	0.218587
12.8062	12.6623	0.307731	0.221669
12.8067	12.6628	0.308502	0.224876
12.8072	12.6632	0.307284	0.224293
12.8076	12.6637	0.309087	0.223714
12.8081	12.6642	0.308147	0.22715
12.8086	12.6646	0.30972	0.230792
12.8091	12.6651	0.308002	0.231829
12.8095	12.6656	0.305423	0.230581
12.81	12.6661	0.308884	0.233852
12.8105	12.6666	0.308918	0.236555
12.8109	12.667	0.30742	0.23784
12.8114	12.6675	0.30808	0.240416
12.8119	12.668	0.309324	0.240861
12.8124	12.6684	0.308331	0.241237
12.8128	12.6689	0.30746	0.243346
12.8133	12.6694	0.309552	0.249877
12.8138	12.6698	0.308943	0.251448
12.8142	12.6703	0.307471	0.250077
12.8147	12.6708	0.307428	0.251867
12.8152	12.6712	0.309441	0.255017
12.8157	12.6717	0.308419	0.256664
12.8161	12.6722	0.309409	0.259972
12.8166	12.6726	0.311025	0.259187
12.8171	12.6731	0.310678	0.260334
12.8176	12.6736	0.310009	0.26394
12.818	12.6741	0.311675	0.265983
12.8185	12.6745	0.310155	0.264803
12.819	12.675	0.308638	0.263835
12.8194	12.6755	0.308338	0.263365
12.8199	12.676	0.308847	0.266469
12.8204	12.6765	0.309505	0.267009
12.8209	12.6769	0.309172	0.268101
12.8213	12.6774	0.309911	0.266981
12.8218	12.6779	0.309457	0.265839
12.8223	12.6784	0.308309	0.266337
12.8227	12.6788	0.310431	0.268764
12.8232	12.6793	0.309912	0.26769
12.8237	12.6798	0.307988	0.264379
12.8242	12.6802	0.310914	0.262232
12.8246	12.6807	0.309985	0.261504
12.8251	12.6812	0.310462	0.260645
12.8256	12.6817	0.30863	0.257807
12.8261	12.6821	0.309101	0.252705
12.8265	12.6826	0.310576	0.251206
12.827	12.6831	0.308439	0.24951
12.8275	12.6835	0.308411	0.248768
12.8279	12.684	0.311826	0.248198
12.8284	12.6845	0.309452	0.242943
12.8289	12.685	0.310252	0.239803
12.8294	12.6854	0.31169	0.238931
12.8298	12.6859	0.312923	0.236556
12.8303	12.6864	0.309306	0.233297
12.8308	12.6869	0.312303	0.228067
12.8312	12.6874	0.313274	0.226094
12.8317	12.6878	0.310882	0.222286
12.8322	12.6883	0.312693	0.222077
12.8327	12.6888	0.311189	0.219318
12.8331	12.6892	0.312134	0.215618
12.8336	12.6897	0.313408	0.214901
12.8341	12.6902	0.314699	0.216929
12.8346	12.6906	0.313293	0.216645
12.835	12.6911	0.313049	0.220078
12.8355	12.6916	0.314556	0.223693
12.836	12.6921	0.31423	0.225918
12.8364	12.6925	0.312944	0.229831
12.8369	12.693	0.314596	0.236574
12.8374	12.6934	0.314223	0.241805
12.8379	12.6939	0.31182	0.241485
12.8383	12.6944	0.314603	0.246156
12.8388	12.6949	0.314997	0.251248
12.8393	12.6953	0.313356	0.254158
12.8397	12.6958	0.312481	0.255058
12.8402	12.6963	0.315337	0.255156
12.8407	12.6968	0.314751	0.25486
12.8412	12.6972	0.31301	0.254353
12.8416	12.6977	0.315225	0.254662
12.8421	12.6982	0.316236	0.253188
12.8426	12.6986	0.31311	0.246481
12.8431	12.6991	0.315264	0.244908
12.8435	12.6996	0.316663	0.243046
12.844	12.7	0.31378	0.238701
12.8445	12.7005	0.314042	0.235202
12.8449	12.701	0.31532	0.23233
12.8454	12.7015	0.317157	0.227123
12.8459	12.7019	0.313944	0.22464
12.8464	12.7024	0.315378	0.226325
12.8468	12.7029	0.316309	0.22339
12.8473	12.7033	0.314202	0.220994
12.8478	12.7038	0.315869	0.223394
12.8482	12.7043	0.316982	0.227832
12.8487	12.7048	0.317174	0.23211
12.8492	12.7053	0.316541	0.237486
12.8497	12.7057	0.31729	0.243528
12.8501	12.7062	0.317812	0.251464
12.8506	12.7067	0.316544	0.260554
12.8511	12.7072	0.317422	0.274557
12.8516	12.7077	0.318463	0.287107
12.852	12.7081	0.317163	0.293628
12.8525	12.7086	0.319257	0.307194
12.853	12.7091	0.320168	0.323531
12.8534	12.7095	0.320061	0.336832
12.8539	12.71	0.318569	0.351046
12.8544	12.7105	0.318736	0.362164
12.8549	12.7109	0.321018	0.375298
12.8553	12.7114	0.317796	0.387677
12.8558	12.7119	0.318625	0.401637
12.8563	12.7124	0.320064	0.411529
12.8567	12.7128	0.317787	0.418489
12.8572	12.7133	0.319865	0.42879
12.8577	12.7138	0.31962	0.437958
12.8582	12.7142	0.319302	0.446069
12.8586	12.7147	0.319944	0.453756
12.8591	12.7152	0.321478	0.462068
12.8596	12.7157	0.320847	0.470074
12.8601	12.7161	0.318939	0.478752
12.8605	12.7166	0.318539	0.491594
12.861	12.7171	0.321523	0.500064
12.8615	12.7176	0.318639	0.502792
12.8619	12.7181	0.320275	0.507745
12.8624	12.7185	0.320352	0.508722
12.8629	12.719	0.318438	0.506428
12.8634	12.7194	0.318668	0.504728
12.8638	12.7199	0.319083	0.498132
12.8643	12.7204	0.32034	0.493935
12.8648	12.7208	0.317832	0.490903
12.8652	12.7213	0.319316	0.496647
12.8657	12.7218	0.319306	0.504656
12.8662	12.7223	0.319085	0.514153
12.8667	12.7227	0.320233	0.537657
12.8671	12.7232	0.318625	0.568294
12.8676	12.7236	0.31566	0.607169
12.8681	12.7241	0.315497	0.659408
12.8686	12.7246	0.317817	0.713726
12.869	12.7251	0.315399	0.753904
12.8695	12.7255	0.31333	0.794784
12.87	12.726	0.315597	0.836536
12.8704	12.7265	0.31813	0.866237
12.8709	12.727	0.31648	0.878527
12.8714	12.7274	0.319414	0.897014
12.8719	12.7279	0.318974	0.911733
12.8723	12.7284	0.317954	0.915617
12.8728	12.7289	0.317405	0.923937
12.8733	12.7293	0.318866	0.933175
12.8737	12.7298	0.322715	0.936922
12.8742	12.7303	0.318073	0.937907
12.8747	12.7307	0.318509	0.942655
12.8752	12.7312	0.319075	0.948818
12.8756	12.7317	0.319404	0.946943
12.8761	12.7322	0.321062	0.949592
12.8766	12.7326	0.321416	0.953232
12.8771	12.7331	0.317164	0.955011
12.8775	12.7336	0.318762	0.957082
12.878	12.734	0.320871	0.96266
12.8785	12.7345	0.323258	0.962388
12.8789	12.735	0.319835	0.959851
12.8794	12.7355	0.318988	0.964094
12.8799	12.736	0.322168	0.967664
12.8804	12.7365	0.32	0.965374
12.8808	12.7369	0.321557	0.967622
12.8813	12.7374	0.322054	0.971
12.8818	12.7379	0.321556	0.970095
12.8822	12.7384	0.320585	0.96976
12.8827	12.7388	0.323357	0.977972
12.8832	12.7393	0.325033	0.975069
12.8837	12.7398	0.320141	0.96998
12.8841	12.7402	0.321246	0.976085
12.8846	12.7407	0.322752	0.97835
12.8851	12.7412	0.320464	0.972029
12.8856	12.7417	0.324421	0.977424
12.886	12.7421	0.32188	0.979109
12.8865	12.7426	0.321484	0.974947
12.887	12.743	0.321128	0.97873
12.8874	12.7435	0.324315	0.983948
12.8879	12.744	0.324857	0.981693
12.8884	12.7445	0.322878	0.978227
12.8889	12.7449	0.322517	0.984939
12.8893	12.7454	0.322981	0.982574
12.8898	12.7459	0.323666	0.97964
12.8903	12.7464	0.326158	0.986435
12.8907	12.7468	0.324494	0.985101
12.8912	12.7473	0.321957	0.98608
12.8917	12.7478	0.324205	0.984648
12.8922	12.7483	0.324184	0.99114
12.8926	12.7487	0.326294	0.988959
12.8931	12.7492	0.324398	0.98612
12.8936	12.7497	0.323063	0.992068
12.8941	12.7501	0.3247	0.988031
12.8945	12.7506	0.32291	0.982649
12.895	12.7511	0.325293	0.991688
12.8955	12.7515	0.325396	0.989243
12.8959	12.752	0.321356	0.986196
12.8964	12.7525	0.321844	0.983412
12.8969	12.7529	0.324344	0.989808
12.8974	12.7534	0.326195	0.990196
12.8978	12.7539	0.323378	0.984144
12.8983	12.7543	0.322681	0.98808
12.8988	12.7548	0.325218	0.993213
