# 1304     AichiSR QXAFS
# Start     : 8.9544
# End       : 9.0544
# Dir       : Forward
# Points    : 300
# ScanTime  : 1.01549
# Date      : 13.04.23 22:23
# Ring Cur. : 25.4[mA]
12.7557	12.7557	0.404122	1.22695
12.7562	12.7552	0.401453	1.22543
12.7566	12.7548	0.401729	1.22229
12.7571	12.7543	0.401046	1.22299
12.7576	12.7538	0.401715	1.22489
12.7581	12.7533	0.400534	1.2238
12.7585	12.7529	0.40129	1.22404
12.759	12.7524	0.399562	1.21968
12.7595	12.752	0.403453	1.2219
12.7599	12.7515	0.401348	1.22239
12.7604	12.751	0.400776	1.22457
12.7609	12.7505	0.401289	1.22044
12.7614	12.7501	0.399384	1.21908
12.7618	12.7496	0.403362	1.21863
12.7623	12.7491	0.401631	1.22079
12.7628	12.7487	0.400929	1.22191
12.7632	12.7482	0.399867	1.22113
12.7637	12.7478	0.399373	1.21778
12.7642	12.7473	0.401699	1.21718
12.7647	12.7468	0.400336	1.21994
12.7651	12.7463	0.400048	1.22075
12.7656	12.7458	0.399703	1.21528
12.7661	12.7454	0.399747	1.21485
12.7666	12.7449	0.401841	1.21436
12.767	12.7444	0.400428	1.21693
12.7675	12.7439	0.399374	1.21808
12.768	12.7435	0.400528	1.21765
12.7684	12.743	0.400482	1.21306
12.7689	12.7425	0.400343	1.21382
12.7694	12.7421	0.401053	1.21519
12.7699	12.7416	0.399205	1.21354
12.7703	12.7411	0.400793	1.21129
12.7708	12.7407	0.399141	1.20875
12.7713	12.7402	0.399377	1.21014
12.7717	12.7397	0.399857	1.20945
12.7722	12.7392	0.399157	1.20923
12.7727	12.7388	0.398747	1.20947
12.7732	12.7383	0.398471	1.20803
12.7736	12.7378	0.401135	1.20613
12.7741	12.7374	0.401086	1.20646
12.7746	12.7369	0.39912	1.20727
12.7751	12.7364	0.398223	1.2008
12.7755	12.7359	0.399246	1.20114
12.776	12.7354	0.3986	1.20156
12.7765	12.735	0.399787	1.20162
12.7769	12.7345	0.398586	1.19787
12.7774	12.734	0.397747	1.19523
12.7779	12.7335	0.398424	1.19272
12.7784	12.7331	0.399233	1.19159
12.7788	12.7326	0.398024	1.19091
12.7793	12.7321	0.397384	1.18856
12.7798	12.7317	0.397549	1.18343
12.7802	12.7312	0.398168	1.18036
12.7807	12.7307	0.397694	1.17623
12.7812	12.7302	0.397881	1.1764
12.7817	12.7297	0.397177	1.17016
12.7821	12.7293	0.39614	1.16792
12.7826	12.7288	0.396278	1.1566
12.7831	12.7284	0.398032	1.15424
12.7836	12.7279	0.397272	1.14902
12.784	12.7274	0.39618	1.13914
12.7845	12.7269	0.394879	1.12102
12.785	12.7265	0.394079	1.10308
12.7854	12.726	0.39391	1.08474
12.7859	12.7255	0.39252	1.05712
12.7864	12.725	0.389641	1.01591
12.7869	12.7245	0.389782	0.968692
12.7873	12.7241	0.391199	0.918029
12.7878	12.7236	0.392448	0.858704
12.7883	12.7231	0.393945	0.800102
12.7887	12.7227	0.393892	0.741259
12.7892	12.7222	0.394589	0.691191
12.7897	12.7218	0.395396	0.654994
12.7902	12.7213	0.395887	0.631148
12.7906	12.7208	0.395037	0.621136
12.7911	12.7203	0.394289	0.612878
12.7916	12.7199	0.395508	0.612126
12.7921	12.7194	0.394703	0.612446
12.7925	12.7189	0.396423	0.617229
12.793	12.7185	0.395353	0.62644
12.7935	12.718	0.394573	0.627353
12.7939	12.7175	0.391967	0.62414
12.7944	12.7171	0.395134	0.621969
12.7949	12.7166	0.395213	0.617561
12.7954	12.7161	0.395252	0.608385
12.7958	12.7156	0.39335	0.597359
12.7963	12.7151	0.393284	0.584404
12.7968	12.7147	0.393545	0.575106
12.7972	12.7142	0.39429	0.563687
12.7977	12.7137	0.395121	0.557415
12.7982	12.7132	0.392439	0.544119
12.7987	12.7128	0.392258	0.533164
12.7991	12.7123	0.393811	0.522398
12.7996	12.7119	0.39504	0.512316
12.8001	12.7114	0.393487	0.499717
12.8006	12.7109	0.391766	0.485816
12.801	12.7104	0.39287	0.467887
12.8015	12.7099	0.394646	0.453061
12.802	12.7095	0.39419	0.439057
12.8024	12.709	0.394135	0.423234
12.8029	12.7086	0.392307	0.408158
12.8034	12.7081	0.390409	0.388126
12.8039	12.7076	0.392184	0.372496
12.8043	12.7071	0.397728	0.362911
12.8048	12.7066	0.396935	0.347351
12.8053	12.7062	0.392034	0.330392
12.8057	12.7057	0.391364	0.316801
12.8062	12.7052	0.392367	0.305404
12.8067	12.7047	0.392126	0.298181
12.8072	12.7042	0.393346	0.290828
12.8076	12.7038	0.39236	0.284392
12.8081	12.7033	0.391755	0.278792
12.8086	12.7028	0.393094	0.274799
12.8091	12.7024	0.394262	0.27492
12.8095	12.7019	0.392239	0.277861
12.81	12.7014	0.391152	0.277566
12.8105	12.701	0.390961	0.279724
12.8109	12.7005	0.393598	0.283483
12.8114	12.7	0.392123	0.289107
12.8119	12.6995	0.392464	0.295168
12.8124	12.6991	0.391983	0.298623
12.8128	12.6986	0.390095	0.302358
12.8133	12.6982	0.392017	0.30669
12.8138	12.6977	0.393181	0.309318
12.8142	12.6972	0.393471	0.314352
12.8147	12.6967	0.390486	0.315269
12.8152	12.6963	0.392358	0.316588
12.8157	12.6958	0.394069	0.317733
12.8161	12.6953	0.392947	0.316997
12.8166	12.6948	0.392336	0.317822
12.8171	12.6943	0.392833	0.314673
12.8176	12.6939	0.392052	0.308847
12.818	12.6934	0.393576	0.306115
12.8185	12.6929	0.392549	0.302716
12.819	12.6925	0.393492	0.297297
12.8194	12.692	0.391837	0.2913
12.8199	12.6916	0.392361	0.28508
12.8204	12.6911	0.39356	0.279752
12.8209	12.6906	0.391874	0.275977
12.8213	12.6901	0.392761	0.27426
12.8218	12.6897	0.392467	0.271389
12.8223	12.6892	0.392309	0.269158
12.8227	12.6887	0.393364	0.269345
12.8232	12.6883	0.394303	0.271576
12.8237	12.6878	0.394101	0.27643
12.8242	12.6873	0.392046	0.278972
12.8246	12.6868	0.391855	0.281573
12.8251	12.6864	0.393425	0.285762
12.8256	12.6859	0.39209	0.289167
12.8261	12.6854	0.391482	0.295312
12.8265	12.6849	0.391208	0.299401
12.827	12.6844	0.389467	0.301018
12.8275	12.684	0.393209	0.303941
12.8279	12.6835	0.39172	0.308048
12.8284	12.683	0.392381	0.311914
12.8289	12.6826	0.391651	0.315653
12.8294	12.6821	0.390832	0.315583
12.8298	12.6816	0.393677	0.319554
12.8303	12.6812	0.393167	0.323763
12.8308	12.6807	0.394246	0.327778
12.8312	12.6802	0.393785	0.3304
12.8317	12.6797	0.393038	0.331318
12.8322	12.6793	0.394945	0.334964
12.8327	12.6788	0.394965	0.339174
12.8331	12.6783	0.393477	0.340008
12.8336	12.6779	0.394417	0.339935
12.8341	12.6774	0.393826	0.338843
12.8346	12.6769	0.395008	0.340124
12.835	12.6764	0.393796	0.341325
12.8355	12.6759	0.394878	0.342267
12.836	12.6755	0.394026	0.340601
12.8364	12.675	0.393579	0.337849
12.8369	12.6745	0.3963	0.337628
12.8374	12.674	0.396217	0.338084
12.8379	12.6735	0.394804	0.337045
12.8383	12.6731	0.393332	0.335104
12.8388	12.6726	0.394659	0.331644
12.8393	12.6722	0.396122	0.332151
12.8397	12.6717	0.396572	0.332389
12.8402	12.6712	0.395547	0.330756
12.8407	12.6707	0.395288	0.327151
12.8412	12.6703	0.393969	0.3235
12.8416	12.6698	0.396882	0.32262
12.8421	12.6693	0.396686	0.321808
12.8426	12.6689	0.393975	0.318695
12.8431	12.6684	0.395179	0.314913
12.8435	12.6679	0.396565	0.311574
12.844	12.6675	0.396191	0.309983
12.8445	12.667	0.39659	0.308663
12.8449	12.6665	0.394271	0.307995
12.8454	12.666	0.39481	0.304817
12.8459	12.6656	0.395745	0.300178
12.8464	12.6651	0.395454	0.298427
12.8468	12.6646	0.39579	0.298088
12.8473	12.6641	0.396182	0.296914
12.8478	12.6637	0.394065	0.29311
12.8482	12.6632	0.395474	0.289129
12.8487	12.6627	0.396743	0.286327
12.8492	12.6623	0.395799	0.286338
12.8497	12.6618	0.395131	0.284544
12.8501	12.6614	0.39432	0.282469
12.8506	12.6609	0.393605	0.277988
12.8511	12.6604	0.394618	0.278416
12.8516	12.6599	0.395596	0.277473
12.852	12.6595	0.393233	0.275774
12.8525	12.659	0.394768	0.273108
12.853	12.6585	0.394414	0.270777
12.8534	12.6581	0.394242	0.271136
12.8539	12.6576	0.394266	0.272335
12.8544	12.6571	0.395365	0.273253
12.8549	12.6566	0.393608	0.270824
12.8553	12.6561	0.393017	0.2702
12.8558	12.6557	0.39603	0.272565
12.8563	12.6552	0.393935	0.273602
12.8567	12.6547	0.39417	0.275801
12.8572	12.6542	0.393554	0.276775
12.8577	12.6538	0.395109	0.277483
12.8582	12.6533	0.395398	0.279781
12.8586	12.6528	0.39473	0.283014
12.8591	12.6524	0.395001	0.286118
12.8596	12.6519	0.394473	0.286353
12.8601	12.6514	0.394068	0.288725
12.8605	12.6509	0.395939	0.291132
12.861	12.6505	0.396629	0.295359
12.8615	12.65	0.394681	0.297451
12.8619	12.6495	0.394474	0.299347
12.8624	12.6491	0.395764	0.299806
12.8629	12.6486	0.39662	0.303688
12.8634	12.6481	0.393697	0.305938
12.8638	12.6476	0.393263	0.308493
12.8643	12.6472	0.392604	0.307988
12.8648	12.6467	0.391861	0.307845
12.8652	12.6462	0.392544	0.309442
12.8657	12.6457	0.391822	0.312813
12.8662	12.6452	0.390845	0.314222
12.8667	12.6448	0.390568	0.313311
12.8671	12.6443	0.390931	0.313507
12.8676	12.6438	0.393269	0.315959
12.8681	12.6433	0.391675	0.31842
12.8686	12.6429	0.391808	0.320281
12.869	12.6424	0.392839	0.318927
12.8695	12.642	0.392485	0.319378
12.87	12.6415	0.393297	0.319793
12.8704	12.641	0.394627	0.321907
12.8709	12.6405	0.392419	0.322192
12.8714	12.6401	0.393285	0.31978
12.8719	12.6396	0.394849	0.319091
12.8723	12.6391	0.393074	0.318207
12.8728	12.6387	0.394559	0.32058
12.8733	12.6382	0.392424	0.319542
12.8737	12.6377	0.39339	0.316662
12.8742	12.6373	0.392521	0.315502
12.8747	12.6368	0.393594	0.315331
12.8752	12.6363	0.393828	0.316383
12.8756	12.6358	0.392268	0.315373
12.8761	12.6354	0.392364	0.313659
12.8766	12.6349	0.392343	0.312625
12.8771	12.6344	0.392012	0.312445
12.8775	12.6339	0.392852	0.314163
12.878	12.6335	0.392388	0.312488
12.8785	12.633	0.393796	0.311402
12.8789	12.6325	0.391676	0.310445
12.8794	12.6321	0.391609	0.31086
12.8799	12.6316	0.392678	0.313656
12.8804	12.6311	0.391571	0.313112
12.8808	12.6306	0.390367	0.312893
12.8813	12.6302	0.391695	0.310302
12.8818	12.6297	0.392038	0.312526
12.8822	12.6292	0.392501	0.314317
12.8827	12.6288	0.389905	0.314299
12.8832	12.6283	0.39162	0.3133
12.8837	12.6278	0.391185	0.312065
12.8841	12.6274	0.391096	0.311713
12.8846	12.6269	0.392138	0.314109
12.8851	12.6264	0.390396	0.313361
12.8856	12.6259	0.389249	0.310828
12.886	12.6254	0.392799	0.309845
12.8865	12.625	0.391042	0.310206
12.887	12.6245	0.39105	0.310843
12.8874	12.624	0.389838	0.30898
12.8879	12.6235	0.38948	0.308448
12.8884	12.6231	0.389926	0.305478
12.8889	12.6226	0.38938	0.306022
12.8893	12.6221	0.392263	0.307797
12.8898	12.6217	0.389356	0.305946
12.8903	12.6212	0.38919	0.302865
12.8907	12.6207	0.391139	0.302239
12.8912	12.6202	0.389862	0.303431
12.8917	12.6197	0.390843	0.30357
12.8922	12.6193	0.389453	0.303862
12.8926	12.6188	0.389133	0.303088
12.8931	12.6184	0.389777	0.30026
12.8936	12.6179	0.39019	0.3014
12.8941	12.6174	0.389816	0.30438
12.8945	12.6169	0.387228	0.303006
12.895	12.6165	0.388328	0.30078
12.8955	12.616	0.390604	0.299682
12.8959	12.6155	0.389345	0.300628
12.8964	12.615	0.389472	0.302044
12.8969	12.6145	0.388902	0.301342
12.8974	12.6141	0.388083	0.299589
12.8978	12.6136	0.390117	0.29848
12.8983	12.6131	0.388639	0.299776
12.8988	12.6127	0.388644	0.301214
