# 1304     AichiSR QXAFS
# Start     : 8.9544
# End       : 9.0544
# Dir       : Forward
# Points    : 300
# ScanTime  : 1.01549
# Date      : 13.04.23 22:29
# Ring Cur. : 25.7[mA]
12.7557	12.7558	0.403525	1.23362
12.7562	12.7553	0.402818	1.2307
12.7566	12.7548	0.402415	1.22672
12.7571	12.7543	0.404222	1.22873
12.7576	12.7539	0.404579	1.23015
12.7581	12.7534	0.403248	1.22746
12.7585	12.7529	0.402648	1.23277
12.759	12.7525	0.402803	1.22442
12.7595	12.752	0.404858	1.22865
12.7599	12.7515	0.403948	1.23002
12.7604	12.7511	0.403039	1.23055
12.7609	12.7506	0.403519	1.22841
12.7614	12.7501	0.403437	1.22595
12.7618	12.7497	0.403912	1.22921
12.7623	12.7492	0.403807	1.22515
12.7628	12.7487	0.403804	1.23172
12.7632	12.7483	0.402273	1.22939
12.7637	12.7478	0.404067	1.22726
12.7642	12.7473	0.403382	1.22478
12.7647	12.7468	0.404706	1.22803
12.7651	12.7464	0.402208	1.22855
12.7656	12.7459	0.403142	1.22461
12.7661	12.7454	0.403394	1.22332
12.7666	12.7449	0.405341	1.22567
12.767	12.7445	0.404857	1.22895
12.7675	12.744	0.402315	1.22879
12.768	12.7435	0.402817	1.22544
12.7684	12.743	0.40288	1.22177
12.7689	12.7426	0.403344	1.22289
12.7694	12.7421	0.402541	1.22201
12.7699	12.7417	0.402658	1.22173
12.7703	12.7412	0.403354	1.22147
12.7708	12.7407	0.403293	1.21619
12.7713	12.7402	0.404037	1.21949
12.7717	12.7398	0.402855	1.21998
12.7722	12.7393	0.40263	1.22053
12.7727	12.7388	0.403708	1.221
12.7732	12.7384	0.402012	1.21864
12.7736	12.7379	0.404682	1.22009
12.7741	12.7374	0.403979	1.21882
12.7746	12.7369	0.402711	1.21852
12.7751	12.7365	0.402158	1.21572
12.7755	12.736	0.401417	1.212
12.776	12.7355	0.402763	1.21307
12.7765	12.735	0.402559	1.2107
12.7769	12.7345	0.400449	1.21067
12.7774	12.734	0.403238	1.20916
12.7779	12.7336	0.40325	1.20668
12.7784	12.7331	0.40326	1.2045
12.7788	12.7326	0.403645	1.20357
12.7793	12.7322	0.402955	1.20362
12.7798	12.7317	0.400931	1.19389
12.7802	12.7312	0.401372	1.19425
12.7807	12.7307	0.402445	1.19144
12.7812	12.7303	0.402058	1.18884
12.7817	12.7298	0.40068	1.18488
12.7821	12.7293	0.402201	1.18154
12.7826	12.7289	0.401888	1.17294
12.7831	12.7284	0.401727	1.165
12.7836	12.7279	0.401623	1.15936
12.784	12.7275	0.400078	1.15309
12.7845	12.727	0.40054	1.13567
12.785	12.7265	0.400009	1.11683
12.7854	12.726	0.401346	1.09838
12.7859	12.7256	0.398019	1.06764
12.7864	12.7251	0.395109	1.02916
12.7869	12.7246	0.39556	0.981093
12.7873	12.7241	0.39633	0.923899
12.7878	12.7237	0.398442	0.860878
12.7883	12.7232	0.400083	0.800681
12.7887	12.7227	0.400579	0.745888
12.7892	12.7223	0.400597	0.695373
12.7897	12.7218	0.399926	0.661468
12.7902	12.7213	0.40123	0.637327
12.7906	12.7209	0.39995	0.625782
12.7911	12.7204	0.398552	0.617917
12.7916	12.7199	0.400716	0.61793
12.7921	12.7194	0.398734	0.621696
12.7925	12.719	0.401193	0.628462
12.793	12.7185	0.400957	0.632434
12.7935	12.7181	0.400218	0.637464
12.7939	12.7176	0.399196	0.635553
12.7944	12.7171	0.400448	0.631487
12.7949	12.7166	0.401296	0.626688
12.7954	12.7162	0.400051	0.617311
12.7958	12.7157	0.398361	0.604983
12.7963	12.7152	0.399145	0.592995
12.7968	12.7147	0.398264	0.580019
12.7972	12.7142	0.40107	0.569128
12.7977	12.7138	0.399217	0.562314
12.7982	12.7133	0.399825	0.553068
12.7987	12.7128	0.398072	0.540803
12.7991	12.7124	0.39829	0.528493
12.7996	12.7119	0.400649	0.518133
12.8001	12.7114	0.399375	0.505793
12.8006	12.7109	0.39904	0.491716
12.801	12.7105	0.399721	0.476675
12.8015	12.71	0.399168	0.460326
12.802	12.7095	0.399589	0.443112
12.8024	12.7091	0.399448	0.42889
12.8029	12.7086	0.398207	0.412053
12.8034	12.7081	0.398208	0.393446
12.8039	12.7077	0.399463	0.375952
12.8043	12.7072	0.400414	0.362031
12.8048	12.7067	0.39955	0.348575
12.8053	12.7062	0.397514	0.334496
12.8057	12.7057	0.398626	0.321676
12.8062	12.7053	0.398712	0.309894
12.8067	12.7048	0.399419	0.300422
12.8072	12.7043	0.398734	0.295137
12.8076	12.7038	0.39817	0.288612
12.8081	12.7033	0.397726	0.282516
12.8086	12.7029	0.39917	0.28058
12.8091	12.7024	0.399486	0.279982
12.8095	12.7019	0.398476	0.281736
12.81	12.7015	0.397505	0.283642
12.8105	12.701	0.396913	0.28605
12.8109	12.7005	0.398837	0.288911
12.8114	12.7	0.397088	0.29369
12.8119	12.6996	0.399258	0.299161
12.8124	12.6991	0.39707	0.302937
12.8128	12.6987	0.396083	0.305615
12.8133	12.6982	0.397482	0.310593
12.8138	12.6977	0.397876	0.315256
12.8142	12.6972	0.398365	0.320475
12.8147	12.6968	0.396241	0.320946
12.8152	12.6963	0.398179	0.321747
12.8157	12.6958	0.397362	0.322393
12.8161	12.6953	0.397196	0.320696
12.8166	12.6949	0.398328	0.322015
12.8171	12.6944	0.396325	0.317792
12.8176	12.6939	0.395544	0.312939
12.818	12.6934	0.396832	0.308054
12.8185	12.693	0.396294	0.304741
12.819	12.6925	0.395766	0.298795
12.8194	12.6921	0.396254	0.293388
12.8199	12.6916	0.396418	0.287473
12.8204	12.6911	0.3971	0.281965
12.8209	12.6906	0.396792	0.277326
12.8213	12.6902	0.395925	0.276741
12.8218	12.6897	0.395941	0.27403
12.8223	12.6892	0.395474	0.271355
12.8227	12.6888	0.39458	0.270781
12.8232	12.6883	0.394884	0.275095
12.8237	12.6879	0.396307	0.277913
12.8242	12.6874	0.395767	0.28063
12.8246	12.6869	0.393985	0.283415
12.8251	12.6864	0.394396	0.287045
12.8256	12.6859	0.393477	0.291472
12.8261	12.6855	0.394301	0.297388
12.8265	12.685	0.393562	0.301241
12.827	12.6845	0.393602	0.302287
12.8275	12.684	0.39402	0.305808
12.8279	12.6835	0.394066	0.309344
12.8284	12.6831	0.393445	0.315412
12.8289	12.6826	0.393152	0.315473
12.8294	12.6821	0.393107	0.318575
12.8298	12.6817	0.394878	0.32185
12.8303	12.6812	0.394596	0.325705
12.8308	12.6807	0.394663	0.329675
12.8312	12.6802	0.395117	0.332053
12.8317	12.6798	0.393854	0.331732
12.8322	12.6793	0.395724	0.33466
12.8327	12.6788	0.3938	0.337946
12.8331	12.6784	0.396008	0.340014
12.8336	12.6779	0.392883	0.340975
12.8341	12.6774	0.39474	0.340724
12.8346	12.6769	0.395319	0.341104
12.835	12.6765	0.3957	0.339393
12.8355	12.676	0.395386	0.340371
12.836	12.6755	0.395387	0.339869
12.8364	12.675	0.394316	0.337123
12.8369	12.6745	0.395503	0.336815
12.8374	12.6741	0.394527	0.337745
12.8379	12.6736	0.394076	0.336
12.8383	12.6731	0.392239	0.335254
12.8388	12.6727	0.393286	0.332459
12.8393	12.6722	0.394338	0.331336
12.8397	12.6717	0.393428	0.330235
12.8402	12.6713	0.393788	0.329479
12.8407	12.6708	0.393331	0.327383
12.8412	12.6703	0.394236	0.321446
12.8416	12.6698	0.394718	0.321472
12.8421	12.6694	0.393751	0.319706
12.8426	12.6689	0.392824	0.317919
12.8431	12.6685	0.393635	0.314257
12.8435	12.668	0.392536	0.311176
12.844	12.6675	0.39414	0.309478
12.8445	12.667	0.392964	0.306963
12.8449	12.6666	0.393581	0.304188
12.8454	12.6661	0.392219	0.303135
12.8459	12.6656	0.391916	0.298083
12.8464	12.6651	0.393725	0.294888
12.8468	12.6647	0.39302	0.294461
12.8473	12.6642	0.390965	0.293532
12.8478	12.6637	0.392312	0.29069
12.8482	12.6632	0.392565	0.286639
12.8487	12.6628	0.394766	0.285039
12.8492	12.6623	0.393546	0.284026
12.8497	12.6619	0.393115	0.283745
12.8501	12.6614	0.390585	0.280433
12.8506	12.6609	0.390961	0.276285
12.8511	12.6604	0.391599	0.274764
12.8516	12.66	0.391011	0.273477
12.852	12.6595	0.390616	0.273314
12.8525	12.659	0.389336	0.271161
12.853	12.6586	0.388354	0.267864
12.8534	12.6581	0.390702	0.267976
12.8539	12.6576	0.390043	0.267947
12.8544	12.6571	0.390641	0.269916
12.8549	12.6567	0.389092	0.268395
12.8553	12.6562	0.388795	0.267682
12.8558	12.6557	0.390205	0.268354
12.8563	12.6552	0.389473	0.271838
12.8567	12.6548	0.388692	0.272611
12.8572	12.6543	0.388458	0.272828
12.8577	12.6538	0.38686	0.27357
12.8582	12.6533	0.391037	0.276792
12.8586	12.6529	0.388139	0.280382
12.8591	12.6524	0.389979	0.282422
12.8596	12.6519	0.389472	0.284865
12.8601	12.6515	0.388295	0.283813
12.8605	12.651	0.39112	0.28749
12.861	12.6505	0.390693	0.290457
12.8615	12.65	0.387916	0.293777
12.8619	12.6496	0.386815	0.294957
12.8624	12.6491	0.387842	0.295765
12.8629	12.6486	0.389705	0.298892
12.8634	12.6482	0.388134	0.300181
12.8638	12.6477	0.38712	0.304704
12.8643	12.6472	0.386717	0.305534
12.8648	12.6467	0.385845	0.30291
12.8652	12.6462	0.385768	0.306186
12.8657	12.6458	0.384845	0.307966
12.8662	12.6453	0.384267	0.308775
12.8667	12.6448	0.382667	0.308864
12.8671	12.6443	0.383192	0.307534
12.8676	12.6439	0.389136	0.312539
12.8681	12.6434	0.389132	0.315487
12.8686	12.6429	0.385436	0.315634
12.869	12.6425	0.385426	0.314474
12.8695	12.642	0.38511	0.314536
12.87	12.6415	0.389076	0.314499
12.8704	12.6411	0.387504	0.31626
12.8709	12.6406	0.386261	0.316588
12.8714	12.6401	0.386217	0.314339
12.8719	12.6396	0.386433	0.312686
12.8723	12.6392	0.38779	0.313688
12.8728	12.6387	0.386829	0.314552
12.8733	12.6383	0.38622	0.314746
12.8737	12.6378	0.385067	0.313794
12.8742	12.6373	0.384991	0.310495
12.8747	12.6368	0.385598	0.310086
12.8752	12.6364	0.38763	0.311837
12.8756	12.6359	0.384968	0.31123
12.8761	12.6354	0.384555	0.307795
12.8766	12.6349	0.385807	0.306209
12.8771	12.6345	0.386984	0.307097
12.8775	12.634	0.386814	0.307722
12.878	12.6335	0.385172	0.309877
12.8785	12.633	0.387057	0.307856
12.8789	12.6326	0.383615	0.305821
12.8794	12.6321	0.38833	0.307019
12.8799	12.6317	0.38753	0.308758
12.8804	12.6312	0.386021	0.310018
12.8808	12.6307	0.386218	0.307837
12.8813	12.6302	0.384738	0.307806
12.8818	12.6297	0.388186	0.307742
12.8822	12.6293	0.387313	0.309812
12.8827	12.6288	0.385994	0.310147
12.8832	12.6284	0.385062	0.308706
12.8837	12.6279	0.385142	0.308883
12.8841	12.6274	0.388598	0.309485
12.8846	12.6269	0.387597	0.310728
12.8851	12.6264	0.386828	0.308518
12.8856	12.626	0.386874	0.309126
12.886	12.6255	0.387596	0.306915
12.8865	12.625	0.388111	0.306554
12.887	12.6245	0.38585	0.306602
12.8874	12.624	0.386441	0.306878
12.8879	12.6236	0.388123	0.305288
12.8884	12.6231	0.387121	0.304027
12.8889	12.6226	0.387964	0.303357
12.8893	12.6222	0.387715	0.304657
12.8898	12.6217	0.388111	0.304503
12.8903	12.6212	0.387127	0.303262
12.8907	12.6207	0.387023	0.300954
12.8912	12.6203	0.388219	0.30134
12.8917	12.6198	0.386547	0.301651
12.8922	12.6193	0.387487	0.303582
12.8926	12.6189	0.386653	0.302147
12.8931	12.6184	0.385897	0.297964
12.8936	12.6179	0.389494	0.30053
12.8941	12.6175	0.387275	0.302079
12.8945	12.617	0.385982	0.302168
12.895	12.6165	0.387526	0.301847
12.8955	12.616	0.387322	0.298488
12.8959	12.6155	0.387472	0.301346
12.8964	12.6151	0.388046	0.301066
12.8969	12.6146	0.386799	0.300529
12.8974	12.6141	0.386701	0.299162
12.8978	12.6136	0.387218	0.297777
12.8983	12.6132	0.387878	0.29762
12.8988	12.6127	0.388149	0.298489
