# 1304     AichiSR QXAFS
# Start     : 8.9544
# End       : 9.0544
# Dir       : Backward
# Points    : 300
# ScanTime  : 1.01549
# Date      : 13.04.23 22:23
# Ring Cur. : 25.4[mA]
12.7557	12.6118	0.302513	0.229763
12.7562	12.6122	0.301339	0.231373
12.7566	12.6127	0.3036	0.233798
12.7571	12.6131	0.303504	0.23591
12.7576	12.6136	0.3021	0.232726
12.7581	12.6141	0.306177	0.234586
12.7585	12.6145	0.305363	0.237226
12.759	12.615	0.302403	0.236019
12.7595	12.6155	0.304305	0.236729
12.7599	12.616	0.306109	0.237701
12.7604	12.6164	0.304279	0.236188
12.7609	12.6169	0.30737	0.239679
12.7614	12.6174	0.304735	0.238564
12.7618	12.6179	0.305123	0.239544
12.7623	12.6183	0.304592	0.235697
12.7628	12.6188	0.305377	0.236767
12.7632	12.6193	0.305597	0.237583
12.7637	12.6197	0.307144	0.240851
12.7642	12.6202	0.304245	0.239648
12.7647	12.6207	0.304085	0.235972
12.7651	12.6212	0.306289	0.237278
12.7656	12.6217	0.304511	0.237528
12.7661	12.6221	0.306052	0.240258
12.7666	12.6226	0.30478	0.238965
12.767	12.6231	0.304666	0.237889
12.7675	12.6235	0.304597	0.238925
12.768	12.624	0.306045	0.242194
12.7684	12.6245	0.30387	0.241036
12.7689	12.6249	0.304319	0.242962
12.7694	12.6254	0.306367	0.242735
12.7699	12.6259	0.307209	0.242825
12.7703	12.6264	0.303762	0.243731
12.7708	12.6269	0.306599	0.246383
12.7713	12.6273	0.307003	0.247125
12.7717	12.6278	0.305825	0.243917
12.7722	12.6283	0.305963	0.245083
12.7727	12.6288	0.307	0.247893
12.7732	12.6292	0.307382	0.247225
12.7736	12.6297	0.306211	0.246124
12.7741	12.6302	0.306197	0.245494
12.7746	12.6306	0.309948	0.246525
12.7751	12.6311	0.308564	0.245872
12.7755	12.6316	0.308726	0.247244
12.776	12.6321	0.307834	0.24824
12.7765	12.6325	0.30802	0.246562
12.7769	12.633	0.310052	0.246505
12.7774	12.6334	0.310077	0.247601
12.7779	12.6339	0.309318	0.248714
12.7784	12.6344	0.309789	0.247909
12.7788	12.6349	0.308763	0.246734
12.7793	12.6353	0.310565	0.247446
12.7798	12.6358	0.309056	0.247679
12.7802	12.6363	0.310235	0.250495
12.7807	12.6368	0.31004	0.250257
12.7812	12.6372	0.309998	0.248733
12.7817	12.6377	0.312695	0.251533
12.7821	12.6382	0.310932	0.251711
12.7826	12.6387	0.310794	0.253791
12.7831	12.6391	0.311928	0.252854
12.7836	12.6396	0.312083	0.254213
12.784	12.64	0.314182	0.253705
12.7845	12.6405	0.311374	0.253843
12.785	12.641	0.312117	0.256655
12.7854	12.6415	0.312508	0.256046
12.7859	12.6419	0.311143	0.25392
12.7864	12.6424	0.314247	0.255117
12.7869	12.6429	0.313179	0.254574
12.7873	12.6433	0.311258	0.254341
12.7878	12.6438	0.311362	0.252927
12.7883	12.6443	0.312303	0.253072
12.7887	12.6447	0.311836	0.252571
12.7892	12.6452	0.31036	0.250513
12.7897	12.6457	0.309868	0.251503
12.7902	12.6462	0.312047	0.251143
12.7906	12.6467	0.311385	0.249422
12.7911	12.6471	0.314053	0.247795
12.7916	12.6476	0.313777	0.248414
12.7921	12.6481	0.313215	0.2482
12.7925	12.6486	0.313123	0.244245
12.793	12.649	0.31619	0.243598
12.7935	12.6495	0.316962	0.242446
12.7939	12.65	0.313653	0.239853
12.7944	12.6504	0.314852	0.240637
12.7949	12.6509	0.315917	0.23834
12.7954	12.6514	0.316737	0.235667
12.7958	12.6519	0.316699	0.232623
12.7963	12.6523	0.31819	0.233496
12.7968	12.6528	0.315879	0.231504
12.7972	12.6533	0.31697	0.227745
12.7977	12.6537	0.318748	0.226835
12.7982	12.6542	0.320617	0.226125
12.7987	12.6547	0.316938	0.224635
12.7991	12.6552	0.316561	0.224475
12.7996	12.6557	0.31944	0.223131
12.8001	12.6561	0.317841	0.218898
12.8006	12.6566	0.319776	0.219486
12.801	12.6571	0.318566	0.220784
12.8015	12.6576	0.317877	0.220144
12.802	12.658	0.317439	0.218665
12.8024	12.6585	0.319692	0.220138
12.8029	12.659	0.321536	0.221071
12.8034	12.6594	0.319502	0.222551
12.8039	12.6599	0.318878	0.22325
12.8043	12.6604	0.319494	0.224628
12.8048	12.6609	0.319428	0.223761
12.8053	12.6613	0.321481	0.227932
12.8057	12.6618	0.321055	0.229691
12.8062	12.6623	0.319689	0.229655
12.8067	12.6627	0.319901	0.229952
12.8072	12.6632	0.321376	0.233873
12.8076	12.6637	0.321955	0.235518
12.8081	12.6641	0.320525	0.237701
12.8086	12.6646	0.32025	0.239197
12.8091	12.6651	0.321275	0.240389
12.8095	12.6656	0.3211	0.24059
12.81	12.666	0.322804	0.243937
12.8105	12.6665	0.323726	0.247504
12.8109	12.667	0.320352	0.250599
12.8114	12.6675	0.321516	0.249153
12.8119	12.6679	0.322663	0.252777
12.8124	12.6684	0.322573	0.255431
12.8128	12.6689	0.321081	0.255888
12.8133	12.6693	0.322819	0.260368
12.8138	12.6698	0.320913	0.259621
12.8142	12.6703	0.322693	0.260924
12.8147	12.6707	0.323299	0.26454
12.8152	12.6712	0.32429	0.268731
12.8157	12.6717	0.321481	0.268172
12.8161	12.6721	0.320657	0.267583
12.8166	12.6726	0.325571	0.271411
12.8171	12.6731	0.32334	0.271785
12.8176	12.6735	0.322343	0.274714
12.818	12.674	0.323028	0.277132
12.8185	12.6745	0.323731	0.276561
12.819	12.675	0.322804	0.275529
12.8194	12.6755	0.323654	0.279258
12.8199	12.6759	0.324842	0.280254
12.8204	12.6764	0.323422	0.280105
12.8209	12.6769	0.321197	0.278653
12.8213	12.6774	0.324685	0.27963
12.8218	12.6779	0.323949	0.280985
12.8223	12.6783	0.322935	0.279832
12.8227	12.6788	0.324383	0.28056
12.8232	12.6793	0.322623	0.277475
12.8237	12.6797	0.324427	0.276055
12.8242	12.6802	0.324346	0.275279
12.8246	12.6807	0.325309	0.274737
12.8251	12.6812	0.323247	0.272638
12.8256	12.6816	0.324171	0.267807
12.8261	12.6821	0.326016	0.264875
12.8265	12.6826	0.324659	0.263216
12.827	12.683	0.322634	0.261241
12.8275	12.6835	0.323203	0.259625
12.8279	12.684	0.324777	0.257181
12.8284	12.6844	0.322394	0.252652
12.8289	12.6849	0.324	0.251717
12.8294	12.6854	0.324866	0.251144
12.8298	12.6859	0.324002	0.246827
12.8303	12.6864	0.32331	0.240623
12.8308	12.6868	0.326145	0.239617
12.8312	12.6873	0.324689	0.235309
12.8317	12.6878	0.325027	0.233406
12.8322	12.6883	0.324386	0.230636
12.8327	12.6887	0.325752	0.226125
12.8331	12.6892	0.326262	0.224028
12.8336	12.6897	0.325891	0.225002
12.8341	12.6901	0.325742	0.225755
12.8346	12.6906	0.324952	0.22602
12.835	12.6911	0.322823	0.22586
12.8355	12.6915	0.327972	0.231384
12.836	12.692	0.325611	0.233436
12.8364	12.6925	0.325601	0.238485
12.8369	12.6929	0.325363	0.244377
12.8374	12.6934	0.324719	0.248732
12.8379	12.6939	0.32555	0.251885
12.8383	12.6943	0.325585	0.256829
12.8388	12.6948	0.325937	0.261448
12.8393	12.6953	0.32473	0.262616
12.8397	12.6958	0.324433	0.262811
12.8402	12.6962	0.327328	0.26505
12.8407	12.6967	0.324268	0.264578
12.8412	12.6972	0.32514	0.263946
12.8416	12.6977	0.323601	0.262098
12.8421	12.6981	0.32575	0.259393
12.8426	12.6986	0.326224	0.255133
12.8431	12.6991	0.325494	0.254515
12.8435	12.6995	0.326022	0.25103
12.844	12.7	0.323511	0.245782
12.8445	12.7005	0.323773	0.241182
12.8449	12.7009	0.327584	0.239112
12.8454	12.7014	0.32531	0.234546
12.8459	12.7019	0.324681	0.231042
12.8464	12.7024	0.324557	0.230809
12.8468	12.7028	0.325252	0.227954
12.8473	12.7033	0.324943	0.228814
12.8478	12.7038	0.324544	0.23093
12.8482	12.7042	0.326679	0.234805
12.8487	12.7047	0.3265	0.239825
12.8492	12.7052	0.324945	0.243231
12.8497	12.7057	0.328527	0.251773
12.8501	12.7062	0.325916	0.259802
12.8506	12.7066	0.32523	0.270398
12.8511	12.7071	0.324514	0.280086
12.8516	12.7076	0.3271	0.291329
12.852	12.7081	0.328108	0.303601
12.8525	12.7086	0.326671	0.315755
12.853	12.709	0.326069	0.33154
12.8534	12.7095	0.326263	0.345672
12.8539	12.7099	0.326535	0.357745
12.8544	12.7104	0.331359	0.373122
12.8549	12.7109	0.328723	0.386917
12.8553	12.7114	0.325992	0.397451
12.8558	12.7119	0.326704	0.409434
12.8563	12.7123	0.328307	0.42108
12.8567	12.7128	0.330108	0.430121
12.8572	12.7132	0.325489	0.438909
12.8577	12.7137	0.327142	0.451639
12.8582	12.7142	0.326148	0.455099
12.8586	12.7147	0.325097	0.461896
12.8591	12.7151	0.329409	0.474877
12.8596	12.7156	0.3288	0.488312
12.8601	12.7161	0.326003	0.492106
12.8605	12.7166	0.328015	0.500751
12.861	12.7171	0.328191	0.509757
12.8615	12.7175	0.327808	0.515122
12.8619	12.718	0.329191	0.519787
12.8624	12.7185	0.327514	0.524056
12.8629	12.7189	0.322514	0.517836
12.8634	12.7194	0.325457	0.513239
12.8638	12.7199	0.329418	0.512012
12.8643	12.7203	0.325777	0.50725
12.8648	12.7208	0.323975	0.504614
12.8652	12.7213	0.325058	0.50765
12.8657	12.7217	0.324887	0.511749
12.8662	12.7222	0.326178	0.526388
12.8667	12.7227	0.326688	0.555886
12.8671	12.7231	0.325835	0.589022
12.8676	12.7236	0.323539	0.621811
12.8681	12.7241	0.321852	0.673032
12.8686	12.7245	0.325192	0.731102
12.869	12.725	0.321975	0.779365
12.8695	12.7255	0.32078	0.812819
12.87	12.726	0.321774	0.854672
12.8704	12.7264	0.323599	0.876605
12.8709	12.7269	0.325034	0.895947
12.8714	12.7274	0.325455	0.916593
12.8719	12.7279	0.326873	0.934529
12.8723	12.7284	0.32381	0.932581
12.8728	12.7288	0.324215	0.937383
12.8733	12.7293	0.327947	0.948903
12.8737	12.7298	0.328092	0.959147
12.8742	12.7302	0.325862	0.958514
12.8747	12.7307	0.323406	0.961075
12.8752	12.7312	0.325214	0.963827
12.8756	12.7317	0.32762	0.968103
12.8761	12.7321	0.326609	0.973711
12.8766	12.7326	0.326342	0.974996
12.8771	12.7331	0.325933	0.973878
12.8775	12.7335	0.325241	0.970187
12.878	12.734	0.33007	0.981444
12.8785	12.7345	0.328439	0.982882
12.8789	12.735	0.324911	0.979927
12.8794	12.7354	0.326911	0.985903
12.8799	12.7359	0.325737	0.982915
12.8804	12.7364	0.326131	0.982975
12.8808	12.7369	0.327918	0.987895
12.8813	12.7374	0.328846	0.993235
12.8818	12.7378	0.326818	0.983836
12.8822	12.7383	0.324126	0.98076
12.8827	12.7388	0.328861	0.989032
12.8832	12.7393	0.328969	0.994394
12.8837	12.7397	0.326211	0.991244
12.8841	12.7402	0.328122	0.992214
12.8846	12.7407	0.325515	0.990841
12.8851	12.7411	0.328921	0.992749
12.8856	12.7416	0.328591	0.995952
12.886	12.7421	0.327382	0.995607
12.8865	12.7425	0.325802	0.993159
12.887	12.743	0.327206	0.992312
12.8874	12.7435	0.329988	0.999207
12.8879	12.7439	0.328795	0.996613
12.8884	12.7444	0.328026	0.999654
12.8889	12.7449	0.328677	0.999626
12.8893	12.7454	0.328266	0.997394
12.8898	12.7459	0.330606	1.00262
12.8903	12.7463	0.330025	1.00177
12.8907	12.7468	0.327687	1.00025
12.8912	12.7473	0.326486	0.997405
12.8917	12.7478	0.326503	0.997581
12.8922	12.7482	0.32867	1.00106
12.8926	12.7487	0.328487	0.999991
12.8931	12.7492	0.327381	1.00253
12.8936	12.7496	0.328598	1.00201
12.8941	12.7501	0.328118	1.00033
12.8945	12.7506	0.329337	1.00144
12.895	12.751	0.329618	1.00443
12.8955	12.7515	0.328712	1.00654
12.8959	12.752	0.327574	0.99931
12.8964	12.7524	0.326767	0.995091
12.8969	12.7529	0.330261	1.00357
12.8974	12.7534	0.328957	1.00472
12.8978	12.7538	0.327187	0.999201
12.8983	12.7543	0.327651	1.00145
12.8988	12.7548	0.329767	1.00367
