# 1304     AichiSR QXAFS
# Start     : 8.9544
# End       : 9.0544
# Dir       : Forward
# Points    : 300
# ScanTime  : 1.01549
# Date      : 13.04.23 22:32
# Ring Cur. : 25.7[mA]
12.7557	12.7558	0.405293	1.23122
12.7562	12.7553	0.402885	1.23393
12.7566	12.7548	0.403147	1.23289
12.7571	12.7544	0.403079	1.23141
12.7576	12.7539	0.403453	1.2279
12.7581	12.7534	0.404621	1.22885
12.7585	12.7529	0.404416	1.23194
12.759	12.7525	0.402567	1.23021
12.7595	12.752	0.402529	1.22901
12.7599	12.7516	0.402934	1.22968
12.7604	12.7511	0.403525	1.22747
12.7609	12.7506	0.40337	1.23033
12.7614	12.7501	0.40211	1.22852
12.7618	12.7497	0.403295	1.22823
12.7623	12.7492	0.401529	1.22515
12.7628	12.7488	0.402371	1.22495
12.7632	12.7483	0.405138	1.22901
12.7637	12.7478	0.401734	1.229
12.7642	12.7473	0.403131	1.2258
12.7647	12.7469	0.402966	1.22416
12.7651	12.7464	0.403084	1.22098
12.7656	12.7459	0.403305	1.22544
12.7661	12.7454	0.40248	1.22679
12.7666	12.745	0.403114	1.22252
12.767	12.7445	0.402818	1.22102
12.7675	12.744	0.402368	1.22048
12.768	12.7435	0.403186	1.22206
12.7684	12.7431	0.401844	1.22384
12.7689	12.7426	0.40085	1.21739
12.7694	12.7421	0.401978	1.21646
12.7699	12.7417	0.40286	1.21614
12.7703	12.7412	0.401604	1.21564
12.7708	12.7407	0.400603	1.21603
12.7713	12.7402	0.40091	1.21306
12.7717	12.7398	0.401373	1.21187
12.7722	12.7393	0.401594	1.21167
12.7727	12.7388	0.40166	1.21549
12.7732	12.7384	0.399663	1.21444
12.7736	12.7379	0.400662	1.20865
12.7741	12.7374	0.399274	1.20863
12.7746	12.7369	0.401145	1.20758
12.7751	12.7365	0.399715	1.2092
12.7755	12.736	0.398685	1.20541
12.776	12.7355	0.399314	1.20321
12.7765	12.735	0.400635	1.20184
12.7769	12.7345	0.399072	1.2006
12.7774	12.7341	0.399891	1.20296
12.7779	12.7336	0.397767	1.1989
12.7784	12.7331	0.399367	1.19263
12.7788	12.7327	0.398898	1.19444
12.7793	12.7322	0.398057	1.19034
12.7798	12.7317	0.399376	1.18853
12.7802	12.7313	0.396025	1.18507
12.7807	12.7308	0.398216	1.18225
12.7812	12.7303	0.399078	1.17655
12.7817	12.7298	0.398166	1.17374
12.7821	12.7294	0.397901	1.17206
12.7826	12.7289	0.39658	1.16804
12.7831	12.7284	0.397459	1.1566
12.7836	12.728	0.398739	1.14933
12.784	12.7275	0.396989	1.14249
12.7845	12.727	0.397643	1.13044
12.785	12.7265	0.393861	1.11493
12.7854	12.7261	0.394606	1.09224
12.7859	12.7256	0.393483	1.06406
12.7864	12.7251	0.397006	1.04578
12.7869	12.7246	0.394419	0.996858
12.7873	12.7241	0.39261	0.936679
12.7878	12.7237	0.391191	0.87222
12.7883	12.7232	0.395386	0.809481
12.7887	12.7227	0.396411	0.754964
12.7892	12.7223	0.396367	0.704052
12.7897	12.7218	0.396323	0.66497
12.7902	12.7214	0.397676	0.637385
12.7906	12.7209	0.397315	0.621156
12.7911	12.7204	0.397222	0.616108
12.7916	12.7199	0.396193	0.613603
12.7921	12.7195	0.395644	0.615687
12.7925	12.719	0.398116	0.619259
12.793	12.7185	0.397144	0.623058
12.7935	12.7181	0.397336	0.628657
12.7939	12.7176	0.396652	0.632911
12.7944	12.7171	0.396473	0.631065
12.7949	12.7166	0.3969	0.623747
12.7954	12.7162	0.398109	0.614666
12.7958	12.7157	0.397526	0.606006
12.7963	12.7152	0.396616	0.59291
12.7968	12.7147	0.395878	0.582174
12.7972	12.7143	0.396234	0.569565
12.7977	12.7138	0.398818	0.559511
12.7982	12.7133	0.398973	0.552408
12.7987	12.7128	0.398279	0.543395
12.7991	12.7124	0.397488	0.532769
12.7996	12.7119	0.397251	0.5177
12.8001	12.7115	0.399431	0.506213
12.8006	12.711	0.399005	0.495341
12.801	12.7105	0.398105	0.482639
12.8015	12.71	0.39734	0.466711
12.802	12.7096	0.398321	0.44732
12.8024	12.7091	0.398863	0.431421
12.8029	12.7086	0.399408	0.417003
12.8034	12.7082	0.399065	0.401104
12.8039	12.7077	0.399467	0.383511
12.8043	12.7072	0.398349	0.365919
12.8048	12.7067	0.398148	0.351441
12.8053	12.7062	0.398858	0.339502
12.8057	12.7058	0.398469	0.32875
12.8062	12.7053	0.397097	0.314858
12.8067	12.7048	0.397941	0.303062
12.8072	12.7043	0.401174	0.295657
12.8076	12.7038	0.399102	0.289693
12.8081	12.7034	0.398501	0.285964
12.8086	12.7029	0.399206	0.281935
12.8091	12.7024	0.399609	0.279261
12.8095	12.702	0.400972	0.279575
12.81	12.7015	0.399876	0.282308
12.8105	12.701	0.399849	0.287265
12.8109	12.7005	0.398726	0.290127
12.8114	12.7001	0.397994	0.293376
12.8119	12.6996	0.39986	0.297065
12.8124	12.6991	0.399649	0.303278
12.8128	12.6987	0.399205	0.308753
12.8133	12.6982	0.39942	0.310617
12.8138	12.6977	0.397947	0.313642
12.8142	12.6973	0.401037	0.318589
12.8147	12.6968	0.400078	0.321788
12.8152	12.6963	0.400144	0.323951
12.8157	12.6958	0.399194	0.326324
12.8161	12.6954	0.399145	0.323716
12.8166	12.6949	0.401522	0.32294
12.8171	12.6944	0.399305	0.322743
12.8176	12.6939	0.398464	0.318902
12.818	12.6935	0.399894	0.314829
12.8185	12.693	0.398908	0.307758
12.819	12.6925	0.400799	0.302974
12.8194	12.6921	0.399873	0.298075
12.8199	12.6916	0.399074	0.29208
12.8204	12.6912	0.401206	0.287972
12.8209	12.6907	0.397178	0.280072
12.8213	12.6902	0.399381	0.277209
12.8218	12.6897	0.400421	0.277306
12.8223	12.6893	0.399647	0.276169
12.8227	12.6888	0.399024	0.274902
12.8232	12.6883	0.399411	0.275801
12.8237	12.6879	0.400505	0.278246
12.8242	12.6874	0.400035	0.28354
12.8246	12.6869	0.39769	0.286221
12.8251	12.6864	0.398627	0.28954
12.8256	12.686	0.398225	0.292742
12.8261	12.6855	0.3993	0.298487
12.8265	12.685	0.398978	0.302994
12.827	12.6845	0.399071	0.30758
12.8275	12.684	0.397858	0.309089
12.8279	12.6836	0.398113	0.311023
12.8284	12.6831	0.397962	0.315089
12.8289	12.6826	0.397176	0.320494
12.8294	12.6822	0.398609	0.322814
12.8298	12.6817	0.39807	0.324949
12.8303	12.6812	0.399104	0.326752
12.8308	12.6807	0.39987	0.331364
12.8312	12.6803	0.400265	0.334611
12.8317	12.6798	0.399752	0.337599
12.8322	12.6793	0.399639	0.339295
12.8327	12.6789	0.401262	0.340458
12.8331	12.6784	0.401273	0.34369
12.8336	12.6779	0.40094	0.345026
12.8341	12.6775	0.400348	0.346247
12.8346	12.677	0.399906	0.345955
12.835	12.6765	0.399128	0.344208
12.8355	12.676	0.400266	0.344698
12.836	12.6755	0.399637	0.345642
12.8364	12.675	0.399217	0.34461
12.8369	12.6746	0.399394	0.342931
12.8374	12.6741	0.401094	0.340829
12.8379	12.6736	0.40129	0.339801
12.8383	12.6731	0.401244	0.341079
12.8388	12.6727	0.401507	0.33954
12.8393	12.6722	0.400021	0.337999
12.8397	12.6718	0.398725	0.334694
12.8402	12.6713	0.400268	0.333154
12.8407	12.6708	0.400295	0.333619
12.8412	12.6703	0.398887	0.332371
12.8416	12.6699	0.400376	0.326242
12.8421	12.6694	0.401235	0.323859
12.8426	12.6689	0.40133	0.322007
12.8431	12.6685	0.400799	0.320561
12.8435	12.668	0.399485	0.3189
12.844	12.6675	0.399665	0.315884
12.8445	12.6671	0.399278	0.311644
12.8449	12.6666	0.39954	0.309188
12.8454	12.6661	0.40084	0.308401
12.8459	12.6656	0.400532	0.306176
12.8464	12.6652	0.399291	0.30263
12.8468	12.6647	0.399786	0.30032
12.8473	12.6642	0.401271	0.297281
12.8478	12.6637	0.400553	0.296209
12.8482	12.6633	0.398233	0.293183
12.8487	12.6628	0.39932	0.291247
12.8492	12.6623	0.398869	0.28775
12.8497	12.6619	0.399268	0.28807
12.8501	12.6614	0.399326	0.285115
12.8506	12.6609	0.397618	0.28491
12.8511	12.6605	0.398574	0.281082
12.8516	12.66	0.399045	0.278735
12.852	12.6595	0.398684	0.277089
12.8525	12.6591	0.398073	0.278298
12.853	12.6586	0.39727	0.277299
12.8534	12.6581	0.398087	0.273755
12.8539	12.6577	0.397675	0.273617
12.8544	12.6572	0.397913	0.272357
12.8549	12.6567	0.399041	0.273542
12.8553	12.6562	0.3972	0.275058
12.8558	12.6557	0.395789	0.275203
12.8563	12.6553	0.397551	0.27513
12.8567	12.6548	0.398452	0.27623
12.8572	12.6543	0.398716	0.279747
12.8577	12.6538	0.396545	0.280843
12.8582	12.6534	0.398207	0.281207
12.8586	12.6529	0.397223	0.282663
12.8591	12.6524	0.399305	0.285782
12.8596	12.652	0.399347	0.289177
12.8601	12.6515	0.396574	0.291863
12.8605	12.651	0.398167	0.293777
12.861	12.6505	0.397668	0.29476
12.8615	12.65	0.399368	0.297142
12.8619	12.6496	0.397074	0.302274
12.8624	12.6491	0.396335	0.302907
12.8629	12.6486	0.396357	0.305108
12.8634	12.6482	0.39732	0.306588
12.8638	12.6477	0.396855	0.309176
12.8643	12.6472	0.39702	0.312313
12.8648	12.6467	0.393288	0.311843
12.8652	12.6463	0.39359	0.312026
12.8657	12.6458	0.392914	0.312559
12.8662	12.6453	0.393476	0.314253
12.8667	12.6448	0.393717	0.316692
12.8671	12.6443	0.391837	0.318105
12.8676	12.6439	0.39309	0.3172
12.8681	12.6434	0.394482	0.319321
12.8686	12.6429	0.395737	0.319576
12.869	12.6425	0.397164	0.323666
12.8695	12.642	0.396372	0.323099
12.87	12.6416	0.394998	0.321611
12.8704	12.6411	0.396533	0.321454
12.8709	12.6406	0.396353	0.323116
12.8714	12.6401	0.396549	0.323528
12.8719	12.6397	0.395097	0.322997
12.8723	12.6392	0.395606	0.322956
12.8728	12.6387	0.396104	0.320637
12.8733	12.6383	0.397768	0.320595
12.8737	12.6378	0.396824	0.32158
12.8742	12.6373	0.394866	0.320288
12.8747	12.6369	0.394279	0.317995
12.8752	12.6364	0.395884	0.317681
12.8756	12.6359	0.394675	0.317266
12.8761	12.6354	0.394981	0.317785
12.8766	12.6349	0.393638	0.316497
12.8771	12.6345	0.394014	0.314729
12.8775	12.634	0.395182	0.312572
12.878	12.6335	0.394093	0.314568
12.8785	12.6331	0.395809	0.315447
12.8789	12.6326	0.395064	0.316082
12.8794	12.6321	0.393671	0.313322
12.8799	12.6317	0.395264	0.315333
12.8804	12.6312	0.394594	0.313818
12.8808	12.6307	0.395317	0.315416
12.8813	12.6302	0.393902	0.315611
12.8818	12.6298	0.393196	0.314029
12.8822	12.6293	0.395537	0.313776
12.8827	12.6288	0.394048	0.315692
12.8832	12.6284	0.395625	0.31614
12.8837	12.6279	0.393588	0.316655
12.8841	12.6274	0.392972	0.314255
12.8846	12.6269	0.394169	0.314386
12.8851	12.6265	0.392575	0.314143
12.8856	12.626	0.392896	0.315451
12.886	12.6255	0.392806	0.313117
12.8865	12.625	0.392898	0.311019
12.887	12.6245	0.394943	0.31142
12.8874	12.6241	0.394158	0.310397
12.8879	12.6236	0.394541	0.311703
12.8884	12.6231	0.392189	0.309317
12.8889	12.6227	0.392967	0.307526
12.8893	12.6222	0.394204	0.307139
12.8898	12.6217	0.393607	0.307274
12.8903	12.6213	0.392583	0.307186
12.8907	12.6208	0.391508	0.306268
12.8912	12.6203	0.392032	0.304486
12.8917	12.6198	0.393003	0.305671
12.8922	12.6193	0.392472	0.306116
12.8926	12.6189	0.393056	0.307784
12.8931	12.6184	0.392754	0.305321
12.8936	12.6179	0.389997	0.305098
12.8941	12.6175	0.393458	0.304344
12.8945	12.617	0.392475	0.304334
12.895	12.6165	0.39139	0.30593
12.8955	12.616	0.391215	0.304849
12.8959	12.6156	0.390458	0.30324
12.8964	12.6151	0.391987	0.302383
12.8969	12.6146	0.390407	0.304416
12.8974	12.6141	0.392394	0.305388
12.8978	12.6137	0.391157	0.302959
12.8983	12.6132	0.390933	0.300513
12.8988	12.6127	0.392692	0.301114
