# 1304     AichiSR QXAFS
# Start     : 8.9544
# End       : 9.0544
# Dir       : Backward
# Points    : 300
# ScanTime  : 1.01549
# Date      : 13.04.23 22:24
# Ring Cur. : 25.5[mA]
12.7557	12.6118	0.303852	0.23377
12.7562	12.6122	0.304737	0.232367
12.7566	12.6127	0.305988	0.233759
12.7571	12.6131	0.305984	0.233809
12.7576	12.6136	0.305433	0.235957
12.7581	12.6141	0.303419	0.236238
12.7585	12.6145	0.305652	0.23741
12.759	12.615	0.305356	0.236106
12.7595	12.6155	0.306044	0.237407
12.7599	12.616	0.306458	0.239337
12.7604	12.6165	0.304845	0.23839
12.7609	12.6169	0.305223	0.238275
12.7614	12.6174	0.307062	0.237457
12.7618	12.6179	0.307851	0.239278
12.7623	12.6184	0.305801	0.239118
12.7628	12.6188	0.30722	0.241065
12.7632	12.6193	0.307324	0.239875
12.7637	12.6198	0.306705	0.236936
12.7642	12.6202	0.306201	0.238858
12.7647	12.6207	0.307239	0.241323
12.7651	12.6212	0.306373	0.24151
12.7656	12.6217	0.304529	0.238864
12.7661	12.6221	0.307323	0.24008
12.7666	12.6226	0.308494	0.240646
12.767	12.6231	0.308028	0.241656
12.7675	12.6235	0.306917	0.243335
12.768	12.624	0.307147	0.242597
12.7684	12.6245	0.30693	0.241688
12.7689	12.625	0.305786	0.242626
12.7694	12.6254	0.309339	0.245133
12.7699	12.6259	0.307041	0.245443
12.7703	12.6264	0.306488	0.244499
12.7708	12.6269	0.306276	0.244937
12.7713	12.6274	0.307523	0.246187
12.7717	12.6278	0.30777	0.246635
12.7722	12.6283	0.307578	0.24636
12.7727	12.6288	0.306963	0.24594
12.7732	12.6292	0.308336	0.245791
12.7736	12.6297	0.308556	0.246966
12.7741	12.6302	0.308329	0.247833
12.7746	12.6306	0.308186	0.247296
12.7751	12.6311	0.308394	0.245446
12.7755	12.6316	0.309597	0.246025
12.776	12.6321	0.309226	0.246027
12.7765	12.6325	0.309739	0.247711
12.7769	12.633	0.30682	0.247895
12.7774	12.6335	0.30796	0.246495
12.7779	12.6339	0.307683	0.244626
12.7784	12.6344	0.308196	0.246004
12.7788	12.6349	0.308841	0.247833
12.7793	12.6354	0.309163	0.248685
12.7798	12.6358	0.308943	0.246637
12.7802	12.6363	0.310663	0.248063
12.7807	12.6368	0.309633	0.248843
12.7812	12.6373	0.307609	0.249202
12.7817	12.6377	0.310399	0.2515
12.7821	12.6382	0.308886	0.249308
12.7826	12.6387	0.311023	0.250772
12.7831	12.6391	0.307454	0.251265
12.7836	12.6396	0.309586	0.254141
12.784	12.6401	0.30889	0.253017
12.7845	12.6405	0.308455	0.252234
12.785	12.641	0.312667	0.253105
12.7854	12.6415	0.310933	0.253871
12.7859	12.642	0.308356	0.253281
12.7864	12.6424	0.308772	0.253691
12.7869	12.6429	0.30962	0.253075
12.7873	12.6433	0.308289	0.251914
12.7878	12.6438	0.306739	0.248707
12.7883	12.6443	0.308866	0.252285
12.7887	12.6447	0.307422	0.249637
12.7892	12.6452	0.305085	0.245805
12.7897	12.6457	0.309228	0.248837
12.7902	12.6462	0.309188	0.246749
12.7906	12.6467	0.30627	0.247711
12.7911	12.6472	0.310242	0.246276
12.7916	12.6476	0.309865	0.24418
12.7921	12.6481	0.309612	0.24216
12.7925	12.6486	0.309007	0.241282
12.793	12.649	0.31246	0.242441
12.7935	12.6495	0.309131	0.238934
12.7939	12.65	0.30848	0.235844
12.7944	12.6505	0.311459	0.233964
12.7949	12.6509	0.311966	0.233883
12.7954	12.6514	0.309471	0.231781
12.7958	12.6519	0.312166	0.230849
12.7963	12.6524	0.31441	0.22896
12.7968	12.6528	0.313636	0.228033
12.7972	12.6533	0.311535	0.225585
12.7977	12.6538	0.312247	0.224244
12.7982	12.6542	0.311367	0.222322
12.7987	12.6547	0.311395	0.218764
12.7991	12.6552	0.314111	0.218904
12.7996	12.6557	0.31058	0.217927
12.8001	12.6562	0.311621	0.21601
12.8006	12.6566	0.31137	0.21575
12.801	12.6571	0.310947	0.215242
12.8015	12.6576	0.312988	0.214856
12.802	12.6581	0.31114	0.213709
12.8024	12.6585	0.311553	0.217466
12.8029	12.659	0.31067	0.2168
12.8034	12.6595	0.311054	0.216395
12.8039	12.6599	0.315284	0.21784
12.8043	12.6604	0.313973	0.219722
12.8048	12.6609	0.312334	0.221287
12.8053	12.6614	0.312912	0.222151
12.8057	12.6618	0.31384	0.22304
12.8062	12.6623	0.315008	0.225055
12.8067	12.6627	0.314689	0.229382
12.8072	12.6632	0.313691	0.229263
12.8076	12.6637	0.313273	0.229668
12.8081	12.6641	0.312599	0.230862
12.8086	12.6646	0.316043	0.232894
12.8091	12.6651	0.314802	0.235773
12.8095	12.6656	0.313382	0.236712
12.81	12.666	0.313995	0.239014
12.8105	12.6665	0.31562	0.241145
12.8109	12.667	0.314294	0.241632
12.8114	12.6675	0.313092	0.244214
12.8119	12.6679	0.315326	0.249372
12.8124	12.6684	0.313578	0.248357
12.8128	12.6689	0.312024	0.247606
12.8133	12.6693	0.317216	0.25406
12.8138	12.6698	0.315573	0.256936
12.8142	12.6703	0.313025	0.256117
12.8147	12.6707	0.314197	0.257983
12.8152	12.6712	0.316136	0.259626
12.8157	12.6717	0.316676	0.262065
12.8161	12.6722	0.315406	0.264854
12.8166	12.6726	0.315535	0.26709
12.8171	12.6731	0.314797	0.266349
12.8176	12.6736	0.31408	0.267509
12.818	12.674	0.317071	0.269319
12.8185	12.6745	0.318043	0.271293
12.819	12.675	0.314171	0.271236
12.8194	12.6755	0.316945	0.272444
12.8199	12.6759	0.316897	0.271838
12.8204	12.6764	0.317625	0.273175
12.8209	12.6769	0.317395	0.274141
12.8213	12.6774	0.316235	0.275495
12.8218	12.6779	0.316442	0.276268
12.8223	12.6783	0.316237	0.273407
12.8227	12.6788	0.320943	0.274999
12.8232	12.6793	0.320077	0.274117
12.8237	12.6797	0.316691	0.27415
12.8242	12.6802	0.318055	0.270055
12.8246	12.6807	0.319463	0.268897
12.8251	12.6812	0.318949	0.26632
12.8256	12.6816	0.31808	0.264517
12.8261	12.6821	0.318084	0.263705
12.8265	12.6826	0.318883	0.259433
12.827	12.683	0.315452	0.25445
12.8275	12.6835	0.319549	0.254133
12.8279	12.684	0.320921	0.253952
12.8284	12.6844	0.317667	0.250398
12.8289	12.6849	0.317951	0.247035
12.8294	12.6854	0.319554	0.24492
12.8298	12.6859	0.321508	0.242461
12.8303	12.6864	0.320289	0.240276
12.8308	12.6868	0.320635	0.235852
12.8312	12.6873	0.320839	0.231928
12.8317	12.6878	0.31986	0.227052
12.8322	12.6883	0.322713	0.227302
12.8327	12.6887	0.3215	0.224369
12.8331	12.6892	0.319336	0.223234
12.8336	12.6897	0.320466	0.220973
12.8341	12.6901	0.321891	0.220584
12.8346	12.6906	0.322182	0.222097
12.835	12.6911	0.321053	0.226851
12.8355	12.6916	0.322794	0.229524
12.836	12.692	0.320542	0.23071
12.8364	12.6925	0.323324	0.235244
12.8369	12.6929	0.324384	0.241853
12.8374	12.6934	0.323102	0.246498
12.8379	12.6939	0.320713	0.250952
12.8383	12.6943	0.322079	0.253523
12.8388	12.6948	0.322829	0.256962
12.8393	12.6953	0.321936	0.259754
12.8397	12.6958	0.323487	0.261593
12.8402	12.6963	0.322604	0.263279
12.8407	12.6967	0.321571	0.260375
12.8412	12.6972	0.32213	0.260478
12.8416	12.6977	0.322164	0.25863
12.8421	12.6982	0.324363	0.259571
12.8426	12.6986	0.322207	0.255646
12.8431	12.6991	0.321572	0.251304
12.8435	12.6995	0.323702	0.248066
12.844	12.7	0.322854	0.244896
12.8445	12.7005	0.323508	0.241323
12.8449	12.701	0.323194	0.239164
12.8454	12.7014	0.324157	0.233437
12.8459	12.7019	0.322285	0.229469
12.8464	12.7024	0.324579	0.228812
12.8468	12.7028	0.324826	0.229375
12.8473	12.7033	0.32184	0.227433
12.8478	12.7038	0.322436	0.226752
12.8482	12.7042	0.324852	0.233056
12.8487	12.7047	0.324895	0.237111
12.8492	12.7052	0.322078	0.24223
12.8497	12.7057	0.324452	0.251276
12.8501	12.7062	0.325104	0.259714
12.8506	12.7067	0.324923	0.26764
12.8511	12.7071	0.325096	0.278762
12.8516	12.7076	0.326951	0.293483
12.852	12.7081	0.326102	0.304294
12.8525	12.7086	0.325467	0.316003
12.853	12.709	0.328189	0.332489
12.8534	12.7095	0.326229	0.344012
12.8539	12.71	0.326413	0.357192
12.8544	12.7104	0.327036	0.374391
12.8549	12.7109	0.32605	0.384739
12.8553	12.7114	0.32636	0.395571
12.8558	12.7119	0.326954	0.409692
12.8563	12.7123	0.327612	0.420196
12.8567	12.7128	0.327845	0.431722
12.8572	12.7133	0.32644	0.440019
12.8577	12.7137	0.33036	0.45065
12.8582	12.7142	0.326045	0.457494
12.8586	12.7147	0.325036	0.466495
12.8591	12.7152	0.327021	0.476631
12.8596	12.7156	0.327063	0.482323
12.8601	12.7161	0.327709	0.489187
12.8605	12.7166	0.327496	0.500558
12.861	12.7171	0.327438	0.509902
12.8615	12.7175	0.325136	0.5158
12.8619	12.718	0.325313	0.517515
12.8624	12.7185	0.328278	0.519754
12.8629	12.7189	0.326354	0.515678
12.8634	12.7194	0.324951	0.513528
12.8638	12.7199	0.326861	0.512282
12.8643	12.7203	0.325681	0.50579
12.8648	12.7208	0.327243	0.503416
12.8652	12.7213	0.327075	0.508206
12.8657	12.7218	0.326926	0.517137
12.8662	12.7222	0.32501	0.527193
12.8667	12.7227	0.325082	0.550147
12.8671	12.7231	0.326808	0.587089
12.8676	12.7236	0.323046	0.627228
12.8681	12.7241	0.322743	0.67552
12.8686	12.7245	0.320928	0.728215
12.869	12.725	0.320838	0.771832
12.8695	12.7255	0.324928	0.815583
12.87	12.726	0.324664	0.856705
12.8704	12.7265	0.324384	0.885254
12.8709	12.7269	0.323305	0.901395
12.8714	12.7274	0.325864	0.918924
12.8719	12.7279	0.328631	0.933623
12.8723	12.7284	0.326463	0.938036
12.8728	12.7288	0.326359	0.944837
12.8733	12.7293	0.324891	0.952336
12.8737	12.7298	0.324231	0.951254
12.8742	12.7302	0.327561	0.957101
12.8747	12.7307	0.325987	0.964785
12.8752	12.7312	0.326041	0.969864
12.8756	12.7317	0.32586	0.967974
12.8761	12.7321	0.325715	0.968484
12.8766	12.7326	0.329192	0.978058
12.8771	12.7331	0.327631	0.978841
12.8775	12.7335	0.326444	0.977579
12.878	12.734	0.3267	0.981558
12.8785	12.7345	0.326695	0.980908
12.8789	12.735	0.328619	0.981707
12.8794	12.7355	0.327464	0.987218
12.8799	12.7359	0.329309	0.990539
12.8804	12.7364	0.327329	0.986801
12.8808	12.7369	0.325252	0.986129
12.8813	12.7374	0.32926	0.989068
12.8818	12.7379	0.328269	0.990486
12.8822	12.7383	0.328009	0.992729
12.8827	12.7388	0.327451	0.99331
12.8832	12.7393	0.32632	0.990875
12.8837	12.7397	0.328883	0.992797
12.8841	12.7402	0.328195	0.997068
12.8846	12.7407	0.328711	1.00116
12.8851	12.7411	0.32856	0.995374
12.8856	12.7416	0.326998	0.994041
12.886	12.7421	0.331306	0.997994
12.8865	12.7426	0.329804	1.0021
12.887	12.743	0.328996	1.00185
12.8874	12.7435	0.327462	0.997955
12.8879	12.744	0.329928	0.996853
12.8884	12.7444	0.33097	1.0001
12.8889	12.7449	0.329733	1.00116
12.8893	12.7454	0.329965	1.00146
12.8898	12.7459	0.328232	1.00356
12.8903	12.7463	0.328573	1.00355
12.8907	12.7468	0.331865	1.00515
12.8912	12.7473	0.33183	1.00742
12.8917	12.7478	0.330552	1.00737
12.8922	12.7482	0.32987	1.0077
12.8926	12.7487	0.329804	1.00553
12.8931	12.7492	0.331591	1.0035
12.8936	12.7496	0.330041	1.00953
12.8941	12.7501	0.331348	1.01337
12.8945	12.7506	0.329541	1.00591
12.895	12.751	0.330418	1.00278
12.8955	12.7515	0.331735	1.00959
12.8959	12.752	0.330936	1.01002
12.8964	12.7524	0.328571	1.00852
12.8969	12.7529	0.330634	1.01007
12.8974	12.7534	0.330033	1.00844
12.8978	12.7538	0.330355	1.00193
12.8983	12.7543	0.331394	1.01003
12.8988	12.7548	0.332535	1.01701
