# 1304     AichiSR QXAFS
# Start     : 8.9544
# End       : 9.0544
# Dir       : Forward
# Points    : 300
# ScanTime  : 1.01549
# Date      : 13.04.23 22:27
# Ring Cur. : 25.5[mA]
12.7557	12.7557	0.401494	1.22396
12.7562	12.7553	0.40206	1.2232
12.7566	12.7548	0.401039	1.22629
12.7571	12.7543	0.401098	1.22928
12.7576	12.7538	0.401396	1.22601
12.7581	12.7534	0.401694	1.21994
12.7585	12.7529	0.40406	1.22507
12.759	12.7524	0.402769	1.22705
12.7595	12.752	0.402368	1.22734
12.7599	12.7515	0.403053	1.22422
12.7604	12.7511	0.402584	1.22201
12.7609	12.7506	0.402689	1.22235
12.7614	12.7501	0.40252	1.22533
12.7618	12.7496	0.401085	1.2255
12.7623	12.7492	0.399919	1.22161
12.7628	12.7487	0.400742	1.22073
12.7632	12.7482	0.402726	1.21912
12.7637	12.7478	0.402817	1.22645
12.7642	12.7473	0.400442	1.22404
12.7647	12.7468	0.400222	1.22166
12.7651	12.7464	0.402114	1.21954
12.7656	12.7459	0.401293	1.21721
12.7661	12.7454	0.400242	1.22027
12.7666	12.7449	0.399227	1.21973
12.767	12.7444	0.401533	1.21603
12.7675	12.744	0.399916	1.21348
12.768	12.7435	0.401144	1.21535
12.7684	12.743	0.400456	1.21724
12.7689	12.7426	0.400129	1.21693
12.7694	12.7421	0.40086	1.21479
12.7699	12.7416	0.401284	1.21147
12.7703	12.7412	0.401672	1.21068
12.7708	12.7407	0.400584	1.21378
12.7713	12.7402	0.40164	1.21373
12.7717	12.7397	0.39999	1.21174
12.7722	12.7393	0.400479	1.20963
12.7727	12.7388	0.401036	1.20856
12.7732	12.7383	0.401759	1.21023
12.7736	12.7379	0.398813	1.21045
12.7741	12.7374	0.400015	1.20641
12.7746	12.7369	0.399346	1.20577
12.7751	12.7364	0.399416	1.20094
12.7755	12.736	0.398676	1.20339
12.776	12.7355	0.398215	1.20276
12.7765	12.735	0.399148	1.19921
12.7769	12.7345	0.399223	1.19452
12.7774	12.734	0.400533	1.19798
12.7779	12.7336	0.398925	1.19736
12.7784	12.7331	0.399681	1.1945
12.7788	12.7326	0.399245	1.19032
12.7793	12.7322	0.399904	1.18758
12.7798	12.7317	0.398746	1.18358
12.7802	12.7312	0.398968	1.18403
12.7807	12.7307	0.397323	1.1797
12.7812	12.7302	0.395808	1.17429
12.7817	12.7298	0.398009	1.17046
12.7821	12.7293	0.398916	1.16619
12.7826	12.7289	0.397438	1.16185
12.7831	12.7284	0.396742	1.15415
12.7836	12.7279	0.397155	1.14827
12.784	12.7274	0.397435	1.13825
12.7845	12.727	0.397273	1.12143
12.785	12.7265	0.395492	1.1088
12.7854	12.726	0.393293	1.08979
12.7859	12.7255	0.392179	1.05296
12.7864	12.7251	0.392069	1.01588
12.7869	12.7246	0.39129	0.969536
12.7873	12.7241	0.39028	0.912553
12.7878	12.7236	0.390454	0.851099
12.7883	12.7232	0.395336	0.793622
12.7887	12.7227	0.395133	0.738387
12.7892	12.7222	0.396079	0.687861
12.7897	12.7218	0.397082	0.656793
12.7902	12.7213	0.394864	0.63467
12.7906	12.7208	0.396343	0.619254
12.7911	12.7204	0.396393	0.613586
12.7916	12.7199	0.397266	0.612761
12.7921	12.7194	0.397866	0.617972
12.7925	12.719	0.394687	0.621224
12.793	12.7185	0.396863	0.624749
12.7935	12.718	0.395134	0.62796
12.7939	12.7176	0.395624	0.629046
12.7944	12.7171	0.395503	0.626335
12.7949	12.7166	0.395906	0.6188
12.7954	12.7161	0.395239	0.608611
12.7958	12.7157	0.396095	0.59892
12.7963	12.7152	0.395781	0.587642
12.7968	12.7147	0.396266	0.576926
12.7972	12.7142	0.394467	0.566859
12.7977	12.7137	0.396109	0.554176
12.7982	12.7133	0.395624	0.545711
12.7987	12.7128	0.39489	0.535614
12.7991	12.7123	0.395294	0.526468
12.7996	12.7119	0.39474	0.51466
12.8001	12.7114	0.39519	0.498189
12.8006	12.7109	0.394974	0.484164
12.801	12.7104	0.395391	0.471219
12.8015	12.71	0.395819	0.45803
12.802	12.7095	0.395215	0.440142
12.8024	12.709	0.394424	0.423684
12.8029	12.7086	0.395972	0.406798
12.8034	12.7081	0.394421	0.391288
12.8039	12.7076	0.395201	0.375392
12.8043	12.7072	0.393657	0.360297
12.8048	12.7067	0.394453	0.342566
12.8053	12.7062	0.39554	0.330105
12.8057	12.7057	0.395516	0.318987
12.8062	12.7052	0.394218	0.308717
12.8067	12.7047	0.394263	0.299476
12.8072	12.7043	0.39401	0.288662
12.8076	12.7038	0.394824	0.283753
12.8081	12.7033	0.394048	0.280277
12.8086	12.7029	0.395648	0.279514
12.8091	12.7024	0.394216	0.276927
12.8095	12.7019	0.394275	0.276546
12.81	12.7015	0.394145	0.279092
12.8105	12.701	0.394701	0.281655
12.8109	12.7005	0.394775	0.28666
12.8114	12.7	0.391742	0.291847
12.8119	12.6996	0.392928	0.293736
12.8124	12.6991	0.394454	0.299046
12.8128	12.6986	0.39428	0.302765
12.8133	12.6982	0.392268	0.308395
12.8138	12.6977	0.39239	0.31257
12.8142	12.6972	0.392879	0.313278
12.8147	12.6968	0.392782	0.315512
12.8152	12.6963	0.392302	0.318123
12.8157	12.6958	0.393366	0.318603
12.8161	12.6953	0.392803	0.317033
12.8166	12.6948	0.392805	0.316592
12.8171	12.6944	0.392668	0.314084
12.8176	12.6939	0.39262	0.310625
12.818	12.6934	0.391903	0.306173
12.8185	12.693	0.391667	0.302372
12.819	12.6925	0.392979	0.29383
12.8194	12.692	0.391424	0.287102
12.8199	12.6916	0.39256	0.283124
12.8204	12.6911	0.391264	0.279779
12.8209	12.6906	0.390391	0.276074
12.8213	12.6902	0.389818	0.269385
12.8218	12.6897	0.392586	0.268364
12.8223	12.6892	0.392074	0.267958
12.8227	12.6888	0.391699	0.269589
12.8232	12.6883	0.390063	0.271909
12.8237	12.6878	0.389674	0.272111
12.8242	12.6874	0.389803	0.275693
12.8246	12.6869	0.389594	0.280332
12.8251	12.6864	0.388892	0.28482
12.8256	12.6859	0.387919	0.289729
12.8261	12.6854	0.387304	0.291387
12.8265	12.685	0.388352	0.29496
12.827	12.6845	0.387901	0.299031
12.8275	12.684	0.387656	0.30337
12.8279	12.6835	0.386783	0.306629
12.8284	12.6831	0.386935	0.306677
12.8289	12.6826	0.388492	0.309897
12.8294	12.6821	0.389609	0.314266
12.8298	12.6817	0.388371	0.319126
12.8303	12.6812	0.388512	0.320043
12.8308	12.6807	0.38882	0.32257
12.8312	12.6802	0.390229	0.325501
12.8317	12.6798	0.388605	0.328631
12.8322	12.6793	0.388287	0.33249
12.8327	12.6788	0.388798	0.333403
12.8331	12.6784	0.387423	0.332073
12.8336	12.6779	0.388316	0.333706
12.8341	12.6774	0.388366	0.335485
12.8346	12.6769	0.389124	0.336165
12.835	12.6765	0.387948	0.33493
12.8355	12.676	0.387967	0.333336
12.836	12.6755	0.38912	0.333574
12.8364	12.675	0.388185	0.332891
12.8369	12.6745	0.388305	0.333963
12.8374	12.6741	0.389146	0.332184
12.8379	12.6736	0.385604	0.328927
12.8383	12.6731	0.389553	0.326557
12.8388	12.6726	0.387973	0.327463
12.8393	12.6722	0.387378	0.326903
12.8397	12.6717	0.385903	0.323819
12.8402	12.6712	0.38794	0.321055
12.8407	12.6708	0.391139	0.32368
12.8412	12.6703	0.392096	0.32139
12.8416	12.6698	0.388084	0.31813
12.8421	12.6694	0.387502	0.314198
12.8426	12.6689	0.386047	0.30989
12.8431	12.6684	0.388507	0.308389
12.8435	12.668	0.387191	0.307258
12.844	12.6675	0.386917	0.305623
12.8445	12.667	0.386581	0.303003
12.8449	12.6665	0.384958	0.297915
12.8454	12.6661	0.388192	0.29657
12.8459	12.6656	0.386326	0.295102
12.8464	12.6651	0.387037	0.29436
12.8468	12.6646	0.38669	0.290409
12.8473	12.6642	0.385256	0.286414
12.8478	12.6637	0.38751	0.285197
12.8482	12.6632	0.386588	0.284313
12.8487	12.6628	0.385028	0.28305
12.8492	12.6623	0.383332	0.279792
12.8497	12.6618	0.384884	0.276882
12.8501	12.6614	0.388574	0.2765
12.8506	12.6609	0.387867	0.275047
12.8511	12.6604	0.387088	0.273219
12.8516	12.6599	0.38691	0.270822
12.852	12.6595	0.384137	0.268032
12.8525	12.659	0.387039	0.26789
12.853	12.6586	0.385955	0.267214
12.8534	12.6581	0.386951	0.266251
12.8539	12.6576	0.384999	0.266545
12.8544	12.6571	0.386859	0.264687
12.8549	12.6567	0.386385	0.265153
12.8553	12.6562	0.387681	0.267469
12.8558	12.6557	0.386188	0.267447
12.8563	12.6552	0.38783	0.269422
12.8567	12.6547	0.38817	0.269546
12.8572	12.6543	0.389283	0.271106
12.8577	12.6538	0.387165	0.274932
12.8582	12.6533	0.388645	0.276929
12.8586	12.6528	0.386341	0.277667
12.8591	12.6524	0.387677	0.278621
12.8596	12.6519	0.390478	0.281381
12.8601	12.6514	0.38684	0.284461
12.8605	12.651	0.387196	0.289165
12.861	12.6505	0.388322	0.289931
12.8615	12.65	0.388274	0.291429
12.8619	12.6495	0.389837	0.294509
12.8624	12.6491	0.388142	0.297981
12.8629	12.6486	0.387292	0.29946
12.8634	12.6481	0.388229	0.300958
12.8638	12.6477	0.386404	0.301129
12.8643	12.6472	0.388006	0.303322
12.8648	12.6467	0.3872	0.30591
12.8652	12.6462	0.384399	0.30742
12.8657	12.6457	0.385015	0.307162
12.8662	12.6453	0.383557	0.305818
12.8667	12.6448	0.387853	0.308902
12.8671	12.6443	0.386603	0.311551
12.8676	12.6438	0.385836	0.313799
12.8681	12.6434	0.385701	0.314552
12.8686	12.6429	0.386693	0.314784
12.869	12.6424	0.388326	0.315116
12.8695	12.642	0.386996	0.316611
12.87	12.6415	0.387339	0.317384
12.8704	12.641	0.388385	0.317573
12.8709	12.6406	0.388866	0.316102
12.8714	12.6401	0.390018	0.314639
12.8719	12.6396	0.388108	0.316683
12.8723	12.6392	0.388953	0.317454
12.8728	12.6387	0.388126	0.315602
12.8733	12.6382	0.387688	0.313808
12.8737	12.6378	0.389645	0.314456
12.8742	12.6373	0.389612	0.314064
12.8747	12.6368	0.387083	0.312921
12.8752	12.6363	0.388415	0.3126
12.8756	12.6359	0.388339	0.311796
12.8761	12.6354	0.389159	0.310858
12.8766	12.6349	0.388667	0.31205
12.8771	12.6344	0.387616	0.311409
12.8775	12.634	0.386931	0.308566
12.878	12.6335	0.388118	0.307285
12.8785	12.633	0.387026	0.309064
12.8789	12.6326	0.389102	0.308555
12.8794	12.6321	0.386608	0.309832
12.8799	12.6316	0.38744	0.30774
12.8804	12.6312	0.389794	0.309415
12.8808	12.6307	0.388613	0.308933
12.8813	12.6302	0.388831	0.310218
12.8818	12.6297	0.388804	0.311481
12.8822	12.6293	0.388815	0.310873
12.8827	12.6288	0.388027	0.310008
12.8832	12.6283	0.390382	0.310827
12.8837	12.6279	0.390894	0.31233
12.8841	12.6274	0.387607	0.311056
12.8846	12.6269	0.388113	0.309665
12.8851	12.6264	0.388128	0.308477
12.8856	12.6259	0.389153	0.308512
12.886	12.6255	0.389589	0.310378
12.8865	12.625	0.387619	0.309403
12.887	12.6245	0.386459	0.306669
12.8874	12.624	0.387845	0.303624
12.8879	12.6235	0.390561	0.305318
12.8884	12.6231	0.386978	0.305398
12.8889	12.6226	0.387555	0.305618
12.8893	12.6222	0.388676	0.303089
12.8898	12.6217	0.389076	0.302187
12.8903	12.6212	0.389304	0.301526
12.8907	12.6207	0.388011	0.303407
12.8912	12.6202	0.38649	0.301959
12.8917	12.6198	0.388079	0.301386
12.8922	12.6193	0.386313	0.300172
12.8926	12.6188	0.387058	0.30136
12.8931	12.6184	0.387183	0.301854
12.8936	12.6179	0.38611	0.302077
12.8941	12.6174	0.387101	0.300141
12.8945	12.617	0.386413	0.299642
12.895	12.6165	0.388754	0.300152
12.8955	12.616	0.388992	0.302254
12.8959	12.6155	0.386843	0.301482
12.8964	12.615	0.387149	0.300245
12.8969	12.6146	0.385931	0.299593
12.8974	12.6141	0.388896	0.299671
12.8978	12.6136	0.38766	0.299116
12.8983	12.6132	0.384974	0.298001
12.8988	12.6127	0.388086	0.296827
