# 1304     AichiSR QXAFS
# Start     : 8.9544
# End       : 9.0544
# Dir       : Backward
# Points    : 300
# ScanTime  : 1.01549
# Date      : 13.04.23 22:31
# Ring Cur. : 25.6[mA]
12.7557	12.6118	0.307327	0.233605
12.7562	12.6123	0.307949	0.235112
12.7566	12.6128	0.305668	0.237533
12.7571	12.6132	0.306082	0.23665
12.7576	12.6137	0.305347	0.235521
12.7581	12.6141	0.308901	0.237863
12.7585	12.6146	0.309787	0.241369
12.759	12.6151	0.305678	0.239418
12.7595	12.6156	0.307314	0.239637
12.7599	12.6161	0.307558	0.239284
12.7604	12.6165	0.309035	0.240121
12.7609	12.617	0.309434	0.241183
12.7614	12.6175	0.30799	0.242256
12.7618	12.618	0.308348	0.240895
12.7623	12.6184	0.30729	0.238729
12.7628	12.6189	0.310003	0.240339
12.7632	12.6194	0.30926	0.24169
12.7637	12.6198	0.306258	0.240772
12.7642	12.6203	0.306205	0.238376
12.7647	12.6208	0.308635	0.239752
12.7651	12.6213	0.310492	0.241116
12.7656	12.6217	0.308178	0.240757
12.7661	12.6222	0.308489	0.243028
12.7666	12.6227	0.306312	0.240977
12.767	12.6231	0.307844	0.241917
12.7675	12.6236	0.308348	0.242551
12.768	12.6241	0.309133	0.245302
12.7684	12.6246	0.307377	0.244857
12.7689	12.625	0.305643	0.243606
12.7694	12.6255	0.309092	0.244074
12.7699	12.626	0.30904	0.245043
12.7703	12.6265	0.30929	0.248769
12.7708	12.627	0.307225	0.247296
12.7713	12.6274	0.306994	0.245562
12.7717	12.6279	0.306989	0.244576
12.7722	12.6284	0.309485	0.247295
12.7727	12.6288	0.308636	0.248917
12.7732	12.6293	0.30846	0.248688
12.7736	12.6298	0.306404	0.246456
12.7741	12.6302	0.307376	0.246361
12.7746	12.6307	0.310487	0.247794
12.7751	12.6312	0.310248	0.248595
12.7755	12.6317	0.308559	0.248901
12.776	12.6321	0.308421	0.246282
12.7765	12.6326	0.308967	0.246474
12.7769	12.6331	0.309794	0.246405
12.7774	12.6335	0.310835	0.24819
12.7779	12.634	0.309569	0.248612
12.7784	12.6345	0.307949	0.245421
12.7788	12.6349	0.310995	0.246156
12.7793	12.6354	0.313252	0.250472
12.7798	12.6359	0.312178	0.252463
12.7802	12.6364	0.311365	0.251713
12.7807	12.6369	0.308899	0.24952
12.7812	12.6373	0.309887	0.247442
12.7817	12.6378	0.310288	0.250265
12.7821	12.6383	0.311189	0.252335
12.7826	12.6387	0.309586	0.25283
12.7831	12.6392	0.309061	0.250506
12.7836	12.6397	0.311569	0.251873
12.784	12.6401	0.310243	0.253137
12.7845	12.6406	0.310258	0.254932
12.785	12.6411	0.311618	0.256186
12.7854	12.6416	0.310683	0.254003
12.7859	12.642	0.309905	0.252695
12.7864	12.6425	0.311418	0.253875
12.7869	12.6429	0.313757	0.256127
12.7873	12.6434	0.310473	0.254966
12.7878	12.6439	0.308943	0.250939
12.7883	12.6443	0.311537	0.251051
12.7887	12.6448	0.3109	0.250725
12.7892	12.6453	0.309627	0.249952
12.7897	12.6458	0.310631	0.251518
12.7902	12.6463	0.311276	0.249517
12.7906	12.6467	0.310198	0.24652
12.7911	12.6472	0.310135	0.247425
12.7916	12.6477	0.313432	0.247658
12.7921	12.6482	0.311876	0.246547
12.7925	12.6487	0.31205	0.242911
12.793	12.6491	0.312622	0.241104
12.7935	12.6496	0.314239	0.24032
12.7939	12.6501	0.314701	0.24072
12.7944	12.6505	0.315461	0.239922
12.7949	12.651	0.314078	0.236723
12.7954	12.6515	0.315268	0.232974
12.7958	12.652	0.315962	0.232736
12.7963	12.6524	0.317669	0.234409
12.7968	12.6529	0.316943	0.231328
12.7972	12.6534	0.316015	0.226539
12.7977	12.6538	0.318792	0.225819
12.7982	12.6543	0.317548	0.225253
12.7987	12.6548	0.316409	0.225069
12.7991	12.6553	0.315471	0.224019
12.7996	12.6557	0.318	0.220829
12.8001	12.6562	0.317372	0.218951
12.8006	12.6567	0.316761	0.219475
12.801	12.6572	0.318906	0.22129
12.8015	12.6577	0.317729	0.220564
12.802	12.6581	0.315541	0.218004
12.8024	12.6586	0.319142	0.218545
12.8029	12.6591	0.320068	0.221389
12.8034	12.6595	0.319091	0.221899
12.8039	12.66	0.31822	0.22271
12.8043	12.6605	0.320481	0.223571
12.8048	12.6609	0.319219	0.224112
12.8053	12.6614	0.320834	0.227905
12.8057	12.6619	0.322097	0.230578
12.8062	12.6623	0.318422	0.231475
12.8067	12.6628	0.320858	0.232113
12.8072	12.6633	0.323011	0.234322
12.8076	12.6637	0.321455	0.235382
12.8081	12.6642	0.321597	0.239584
12.8086	12.6647	0.321622	0.240644
12.8091	12.6652	0.320985	0.240745
12.8095	12.6656	0.321682	0.241519
12.81	12.6661	0.323125	0.245646
12.8105	12.6666	0.322593	0.248795
12.8109	12.6671	0.320528	0.249117
12.8114	12.6675	0.322732	0.250942
12.8119	12.668	0.322776	0.252775
12.8124	12.6685	0.32253	0.255748
12.8128	12.6689	0.321772	0.258607
12.8133	12.6694	0.323827	0.260721
12.8138	12.6699	0.323541	0.261275
12.8142	12.6703	0.323807	0.262737
12.8147	12.6708	0.323388	0.266498
12.8152	12.6713	0.32472	0.269968
12.8157	12.6718	0.322375	0.271604
12.8161	12.6722	0.322545	0.270106
12.8166	12.6727	0.32696	0.2725
12.8171	12.6732	0.324176	0.273689
12.8176	12.6736	0.323303	0.275229
12.818	12.6741	0.32433	0.276993
12.8185	12.6746	0.32427	0.277126
12.819	12.6751	0.323493	0.275714
12.8194	12.6755	0.322291	0.278023
12.8199	12.676	0.326001	0.281781
12.8204	12.6765	0.324525	0.281246
12.8209	12.677	0.322602	0.278002
12.8213	12.6775	0.32658	0.279881
12.8218	12.6779	0.32586	0.282738
12.8223	12.6784	0.324062	0.281442
12.8227	12.6789	0.32582	0.280462
12.8232	12.6793	0.324204	0.279555
12.8237	12.6798	0.326763	0.277064
12.8242	12.6803	0.325819	0.27607
12.8246	12.6808	0.325997	0.275723
12.8251	12.6812	0.324737	0.272566
12.8256	12.6817	0.324567	0.267819
12.8261	12.6822	0.326282	0.267419
12.8265	12.6826	0.326021	0.264695
12.827	12.6831	0.326446	0.26376
12.8275	12.6836	0.325243	0.260126
12.8279	12.684	0.325632	0.256079
12.8284	12.6845	0.327906	0.253866
12.8289	12.685	0.326376	0.253647
12.8294	12.6855	0.327327	0.252354
12.8298	12.686	0.327658	0.247315
12.8303	12.6864	0.325752	0.24217
12.8308	12.6869	0.328131	0.239427
12.8312	12.6874	0.327907	0.237894
12.8317	12.6879	0.328068	0.23536
12.8322	12.6883	0.328524	0.230687
12.8327	12.6888	0.326252	0.225472
12.8331	12.6893	0.329531	0.225764
12.8336	12.6897	0.328039	0.225815
12.8341	12.6902	0.328704	0.228521
12.8346	12.6907	0.328486	0.227591
12.835	12.6912	0.326899	0.227952
12.8355	12.6916	0.330681	0.233738
12.836	12.6921	0.329467	0.238991
12.8364	12.6926	0.328235	0.244058
12.8369	12.693	0.329186	0.247631
12.8374	12.6935	0.327423	0.251378
12.8379	12.6939	0.327523	0.253871
12.8383	12.6944	0.328977	0.260725
12.8388	12.6949	0.329066	0.265268
12.8393	12.6954	0.327495	0.263871
12.8397	12.6959	0.32582	0.263709
12.8402	12.6963	0.329515	0.267163
12.8407	12.6968	0.329426	0.268166
12.8412	12.6973	0.326634	0.265812
12.8416	12.6978	0.328694	0.263742
12.8421	12.6982	0.3296	0.260829
12.8426	12.6987	0.327567	0.257895
12.8431	12.6991	0.329047	0.25688
12.8435	12.6996	0.329497	0.253872
12.844	12.7001	0.326962	0.247724
12.8445	12.7006	0.325172	0.242219
12.8449	12.701	0.32911	0.239842
12.8454	12.7015	0.327346	0.237504
12.8459	12.702	0.325478	0.234042
12.8464	12.7024	0.32885	0.233684
12.8468	12.7029	0.328233	0.230184
12.8473	12.7034	0.327216	0.23026
12.8478	12.7038	0.329698	0.233334
12.8482	12.7043	0.329113	0.238687
12.8487	12.7048	0.329406	0.242214
12.8492	12.7053	0.328127	0.246167
12.8497	12.7058	0.329896	0.25474
12.8501	12.7063	0.327715	0.263878
12.8506	12.7067	0.328279	0.273752
12.8511	12.7072	0.330174	0.284115
12.8516	12.7077	0.32884	0.29624
12.852	12.7082	0.329477	0.306971
12.8525	12.7086	0.329902	0.322011
12.853	12.7091	0.329663	0.338683
12.8534	12.7096	0.330635	0.352903
12.8539	12.71	0.331236	0.365608
12.8544	12.7105	0.329833	0.378074
12.8549	12.711	0.330497	0.393764
12.8553	12.7115	0.331271	0.407761
12.8558	12.7119	0.331052	0.417401
12.8563	12.7124	0.329635	0.426168
12.8567	12.7129	0.330843	0.436571
12.8572	12.7133	0.330363	0.446516
12.8577	12.7138	0.330892	0.457531
12.8582	12.7143	0.329911	0.463791
12.8586	12.7147	0.329035	0.467711
12.8591	12.7152	0.328885	0.478892
12.8596	12.7157	0.331189	0.491265
12.8601	12.7162	0.328517	0.499154
12.8605	12.7167	0.329529	0.506876
12.861	12.7171	0.330959	0.516423
12.8615	12.7176	0.329305	0.520536
12.8619	12.7181	0.329694	0.524888
12.8624	12.7186	0.329766	0.528306
12.8629	12.719	0.328706	0.520859
12.8634	12.7195	0.327886	0.516884
12.8638	12.7199	0.328635	0.512973
12.8643	12.7204	0.329466	0.512135
12.8648	12.7209	0.328049	0.511443
12.8652	12.7214	0.329457	0.513288
12.8657	12.7218	0.329181	0.519892
12.8662	12.7223	0.32675	0.53196
12.8667	12.7228	0.326887	0.560012
12.8671	12.7232	0.328208	0.600072
12.8676	12.7237	0.326055	0.636699
12.8681	12.7241	0.323501	0.686314
12.8686	12.7246	0.325634	0.744898
12.869	12.7251	0.32475	0.793528
12.8695	12.7256	0.322164	0.834068
12.87	12.7261	0.326741	0.869817
12.8704	12.7265	0.327264	0.896268
12.8709	12.727	0.32586	0.907882
12.8714	12.7275	0.326618	0.92665
12.8719	12.728	0.32883	0.945901
12.8723	12.7284	0.32825	0.943798
12.8728	12.7289	0.328059	0.95168
12.8733	12.7294	0.329037	0.959893
12.8737	12.7298	0.327796	0.962124
12.8742	12.7303	0.326274	0.96736
12.8747	12.7308	0.328516	0.97307
12.8752	12.7313	0.330042	0.975395
12.8756	12.7317	0.327264	0.972805
12.8761	12.7322	0.329097	0.977179
12.8766	12.7327	0.33062	0.98946
12.8771	12.7331	0.329231	0.980914
12.8775	12.7336	0.329357	0.986246
12.878	12.7341	0.330126	0.989852
12.8785	12.7346	0.329395	0.989747
12.8789	12.735	0.327806	0.989375
12.8794	12.7355	0.330025	0.990099
12.8799	12.736	0.330754	0.992811
12.8804	12.7365	0.327636	0.990946
12.8808	12.737	0.328711	0.992146
12.8813	12.7375	0.328617	0.99905
12.8818	12.7379	0.330561	0.996049
12.8822	12.7384	0.330294	0.994364
12.8827	12.7389	0.330656	1.00029
12.8832	12.7393	0.330402	1.00119
12.8837	12.7398	0.329602	1.00306
12.8841	12.7403	0.331091	1.00515
12.8846	12.7407	0.331548	1.0021
12.8851	12.7412	0.332393	1.00516
12.8856	12.7417	0.33111	1.00849
12.886	12.7422	0.330565	1.00834
12.8865	12.7426	0.329537	1.00356
12.887	12.7431	0.330987	1.00413
12.8874	12.7436	0.330611	1.00407
12.8879	12.744	0.329773	1.00652
12.8884	12.7445	0.329914	1.00894
12.8889	12.745	0.333405	1.00896
12.8893	12.7455	0.334069	1.0107
12.8898	12.7459	0.332096	1.00952
12.8903	12.7464	0.33218	1.01184
12.8907	12.7469	0.335013	1.01823
12.8912	12.7474	0.330896	1.00818
12.8917	12.7478	0.331998	1.01018
12.8922	12.7483	0.332636	1.01272
12.8926	12.7488	0.33408	1.01499
12.8931	12.7492	0.331368	1.01196
12.8936	12.7497	0.332565	1.01096
12.8941	12.7502	0.33399	1.01377
12.8945	12.7506	0.331944	1.01505
12.895	12.7511	0.333102	1.01293
12.8955	12.7516	0.332694	1.01851
12.8959	12.7521	0.331579	1.01203
12.8964	12.7525	0.334205	1.01405
12.8969	12.753	0.333972	1.01541
12.8974	12.7534	0.332097	1.01351
12.8978	12.7539	0.330507	1.01222
12.8983	12.7544	0.332833	1.01466
12.8988	12.7549	0.33515	1.01593
