# 1304     AichiSR QXAFS
# Start     : 8.9544
# End       : 9.0544
# Dir       : Forward
# Points    : 300
# ScanTime  : 1.01549
# Date      : 13.04.23 22:28
# Ring Cur. : 25.4[mA]
12.7557	12.7558	0.399366	1.21264
12.7562	12.7553	0.400151	1.21609
12.7566	12.7548	0.397003	1.21418
12.7571	12.7543	0.399018	1.21367
12.7576	12.7538	0.398047	1.21241
12.7581	12.7534	0.397745	1.21176
12.7585	12.7529	0.399064	1.21681
12.759	12.7525	0.398315	1.21644
12.7595	12.752	0.39847	1.21163
12.7599	12.7515	0.400393	1.21239
12.7604	12.7511	0.39855	1.21395
12.7609	12.7506	0.399432	1.21367
12.7614	12.7501	0.396509	1.2133
12.7618	12.7496	0.397992	1.21273
12.7623	12.7492	0.397893	1.21058
12.7628	12.7487	0.398814	1.21527
12.7632	12.7483	0.399094	1.21463
12.7637	12.7478	0.399915	1.21971
12.7642	12.7473	0.39879	1.21143
12.7647	12.7468	0.398703	1.21257
12.7651	12.7464	0.400063	1.21123
12.7656	12.7459	0.399007	1.21179
12.7661	12.7454	0.397551	1.21486
12.7666	12.7449	0.399425	1.21221
12.767	12.7445	0.399028	1.21054
12.7675	12.744	0.398349	1.21129
12.768	12.7435	0.398765	1.21202
12.7684	12.743	0.398819	1.21401
12.7689	12.7426	0.398309	1.20714
12.7694	12.7421	0.399253	1.21136
12.7699	12.7416	0.399025	1.21038
12.7703	12.7412	0.399395	1.21204
12.7708	12.7407	0.399234	1.20617
12.7713	12.7402	0.399229	1.20729
12.7717	12.7397	0.400076	1.2084
12.7722	12.7393	0.400007	1.20772
12.7727	12.7388	0.400578	1.20778
12.7732	12.7384	0.397798	1.20703
12.7736	12.7379	0.399117	1.20437
12.7741	12.7374	0.400239	1.20232
12.7746	12.7369	0.398668	1.19952
12.7751	12.7364	0.398946	1.20203
12.7755	12.736	0.398728	1.20164
12.776	12.7355	0.400232	1.19966
12.7765	12.735	0.399227	1.19709
12.7769	12.7345	0.400189	1.1988
12.7774	12.734	0.399141	1.19859
12.7779	12.7336	0.397886	1.1954
12.7784	12.7331	0.398207	1.19035
12.7788	12.7326	0.398794	1.18807
12.7793	12.7322	0.398704	1.19086
12.7798	12.7317	0.39704	1.18622
12.7802	12.7312	0.396234	1.18359
12.7807	12.7307	0.398046	1.17692
12.7812	12.7303	0.397821	1.17442
12.7817	12.7298	0.397162	1.16948
12.7821	12.7293	0.399781	1.16974
12.7826	12.7289	0.396063	1.16498
12.7831	12.7284	0.396258	1.15551
12.7836	12.7279	0.397903	1.14698
12.784	12.7274	0.397429	1.14221
12.7845	12.727	0.396636	1.12877
12.785	12.7265	0.39521	1.11053
12.7854	12.726	0.395412	1.08687
12.7859	12.7255	0.394522	1.05719
12.7864	12.7251	0.392931	1.01998
12.7869	12.7246	0.392365	0.972887
12.7873	12.7241	0.391776	0.917372
12.7878	12.7236	0.392606	0.850931
12.7883	12.7232	0.395413	0.795342
12.7887	12.7227	0.397633	0.741955
12.7892	12.7223	0.395942	0.691525
12.7897	12.7218	0.397341	0.655918
12.7902	12.7213	0.397336	0.632441
12.7906	12.7208	0.399092	0.620208
12.7911	12.7204	0.397547	0.614909
12.7916	12.7199	0.398902	0.616715
12.7921	12.7194	0.395772	0.61849
12.7925	12.719	0.396294	0.620847
12.793	12.7185	0.398762	0.626202
12.7935	12.7181	0.397362	0.632515
12.7939	12.7176	0.396415	0.631502
12.7944	12.7171	0.395835	0.626047
12.7949	12.7166	0.396698	0.6206
12.7954	12.7161	0.397282	0.609994
12.7958	12.7157	0.397272	0.602108
12.7963	12.7152	0.396638	0.592108
12.7968	12.7147	0.396418	0.578944
12.7972	12.7142	0.395601	0.565749
12.7977	12.7137	0.398098	0.55897
12.7982	12.7133	0.397911	0.548655
12.7987	12.7128	0.396251	0.539937
12.7991	12.7124	0.39585	0.526683
12.7996	12.7119	0.397403	0.514295
12.8001	12.7114	0.39834	0.500191
12.8006	12.7109	0.397665	0.488106
12.801	12.7105	0.395865	0.477407
12.8015	12.71	0.396827	0.457863
12.802	12.7095	0.394804	0.439314
12.8024	12.7091	0.398349	0.424309
12.8029	12.7086	0.397242	0.409815
12.8034	12.7081	0.396673	0.393528
12.8039	12.7076	0.395207	0.375166
12.8043	12.7072	0.395655	0.359166
12.8048	12.7067	0.396848	0.344087
12.8053	12.7062	0.396707	0.333301
12.8057	12.7057	0.395589	0.321954
12.8062	12.7052	0.395387	0.309725
12.8067	12.7048	0.394651	0.2971
12.8072	12.7043	0.397783	0.291125
12.8076	12.7038	0.396769	0.287582
12.8081	12.7033	0.395968	0.283192
12.8086	12.7029	0.396061	0.279444
12.8091	12.7024	0.39491	0.27626
12.8095	12.7019	0.397477	0.277789
12.81	12.7015	0.394554	0.279402
12.8105	12.701	0.396977	0.285826
12.8109	12.7005	0.394622	0.288116
12.8114	12.7	0.395084	0.290744
12.8119	12.6996	0.395998	0.29612
12.8124	12.6991	0.39372	0.301088
12.8128	12.6987	0.394551	0.306125
12.8133	12.6982	0.393964	0.310095
12.8138	12.6977	0.394266	0.311474
12.8142	12.6972	0.395974	0.313899
12.8147	12.6968	0.394783	0.318656
12.8152	12.6963	0.39483	0.321015
12.8157	12.6958	0.394652	0.320542
12.8161	12.6953	0.39198	0.318147
12.8166	12.6949	0.395648	0.316639
12.8171	12.6944	0.394808	0.316378
12.8176	12.6939	0.394333	0.314409
12.818	12.6934	0.393022	0.307756
12.8185	12.693	0.393169	0.300977
12.819	12.6925	0.395118	0.296376
12.8194	12.6921	0.394696	0.291516
12.8199	12.6916	0.393456	0.286881
12.8204	12.6911	0.394679	0.281218
12.8209	12.6906	0.393058	0.274105
12.8213	12.6902	0.394692	0.272243
12.8218	12.6897	0.394387	0.271315
12.8223	12.6892	0.392182	0.271682
12.8227	12.6888	0.392315	0.271696
12.8232	12.6883	0.392204	0.271085
12.8237	12.6878	0.393523	0.273888
12.8242	12.6874	0.393826	0.278709
12.8246	12.6869	0.392437	0.28212
12.8251	12.6864	0.391454	0.286565
12.8256	12.6859	0.389902	0.288763
12.8261	12.6854	0.392245	0.292521
12.8265	12.685	0.392423	0.298691
12.827	12.6845	0.390771	0.302569
12.8275	12.684	0.39047	0.305636
12.8279	12.6835	0.390129	0.306426
12.8284	12.6831	0.390579	0.310351
12.8289	12.6826	0.390482	0.314296
12.8294	12.6821	0.390717	0.317544
12.8298	12.6817	0.391808	0.321479
12.8303	12.6812	0.39185	0.321136
12.8308	12.6807	0.392691	0.325987
12.8312	12.6802	0.39217	0.329873
12.8317	12.6798	0.391542	0.331877
12.8322	12.6793	0.391533	0.333748
12.8327	12.6788	0.392127	0.33377
12.8331	12.6784	0.39291	0.335947
12.8336	12.6779	0.392347	0.336629
12.8341	12.6774	0.392919	0.339508
12.8346	12.6769	0.393422	0.338816
12.835	12.6765	0.39059	0.336529
12.8355	12.676	0.393101	0.336747
12.836	12.6755	0.391782	0.337629
12.8364	12.675	0.391387	0.336859
12.8369	12.6745	0.391137	0.335419
12.8374	12.6741	0.391484	0.333461
12.8379	12.6736	0.392278	0.332731
12.8383	12.6731	0.39074	0.332867
12.8388	12.6727	0.390482	0.33142
12.8393	12.6722	0.39183	0.328511
12.8397	12.6717	0.39122	0.326068
12.8402	12.6713	0.393618	0.325256
12.8407	12.6708	0.390814	0.325691
12.8412	12.6703	0.391011	0.322284
12.8416	12.6698	0.391504	0.320447
12.8421	12.6694	0.39047	0.315343
12.8426	12.6689	0.392374	0.314278
12.8431	12.6685	0.392064	0.313967
12.8435	12.668	0.390571	0.310656
12.844	12.6675	0.391047	0.307286
12.8445	12.667	0.390038	0.303343
12.8449	12.6666	0.392414	0.30146
12.8454	12.6661	0.391063	0.300895
12.8459	12.6656	0.391725	0.298651
12.8464	12.6651	0.390009	0.294796
12.8468	12.6646	0.389836	0.291807
12.8473	12.6642	0.391663	0.290286
12.8478	12.6637	0.389443	0.288949
12.8482	12.6632	0.391215	0.287782
12.8487	12.6628	0.388134	0.283961
12.8492	12.6623	0.389171	0.280104
12.8497	12.6619	0.390258	0.280384
12.8501	12.6614	0.390196	0.279447
12.8506	12.6609	0.388374	0.276514
12.8511	12.6604	0.389213	0.273811
12.8516	12.66	0.389128	0.271969
12.852	12.6595	0.389585	0.270418
12.8525	12.659	0.387557	0.269581
12.853	12.6586	0.387334	0.268934
12.8534	12.6581	0.387573	0.266972
12.8539	12.6576	0.386831	0.265311
12.8544	12.6571	0.387785	0.26566
12.8549	12.6567	0.38794	0.267527
12.8553	12.6562	0.389036	0.268544
12.8558	12.6557	0.386476	0.26767
12.8563	12.6552	0.387294	0.26799
12.8567	12.6547	0.38823	0.270091
12.8572	12.6543	0.388234	0.273468
12.8577	12.6538	0.38599	0.274259
12.8582	12.6533	0.38683	0.27568
12.8586	12.6529	0.386721	0.276201
12.8591	12.6524	0.389853	0.279427
12.8596	12.6519	0.388568	0.283073
12.8601	12.6515	0.387557	0.285513
12.8605	12.651	0.386192	0.287322
12.861	12.6505	0.38658	0.287284
12.8615	12.65	0.388338	0.29084
12.8619	12.6495	0.387902	0.294486
12.8624	12.6491	0.386879	0.297239
12.8629	12.6486	0.386231	0.297763
12.8634	12.6482	0.384759	0.296926
12.8638	12.6477	0.385121	0.300354
12.8643	12.6472	0.384792	0.303645
12.8648	12.6467	0.383213	0.304274
12.8652	12.6462	0.382636	0.30456
12.8657	12.6458	0.381218	0.304175
12.8662	12.6453	0.3821	0.305385
12.8667	12.6448	0.380358	0.308185
12.8671	12.6443	0.381678	0.30866
12.8676	12.6438	0.382028	0.309566
12.8681	12.6434	0.381606	0.308587
12.8686	12.6429	0.384572	0.310421
12.869	12.6424	0.384071	0.312395
12.8695	12.642	0.383376	0.314787
12.87	12.6415	0.384191	0.312314
12.8704	12.641	0.384173	0.31386
12.8709	12.6406	0.383657	0.312392
12.8714	12.6401	0.384961	0.314054
12.8719	12.6396	0.382427	0.314468
12.8723	12.6392	0.384147	0.31237
12.8728	12.6387	0.383441	0.310551
12.8733	12.6382	0.384259	0.310633
12.8737	12.6378	0.384108	0.313076
12.8742	12.6373	0.383427	0.309649
12.8747	12.6368	0.383816	0.308621
12.8752	12.6363	0.383943	0.306075
12.8756	12.6359	0.387372	0.310061
12.8761	12.6354	0.383765	0.308899
12.8766	12.6349	0.381971	0.307227
12.8771	12.6344	0.382933	0.305576
12.8775	12.634	0.382919	0.304072
12.878	12.6335	0.38353	0.304042
12.8785	12.633	0.382837	0.305086
12.8789	12.6326	0.381373	0.306273
12.8794	12.6321	0.382413	0.304532
12.8799	12.6316	0.382275	0.303842
12.8804	12.6312	0.382567	0.303773
12.8808	12.6307	0.383771	0.305836
12.8813	12.6302	0.380833	0.305521
12.8818	12.6297	0.38063	0.304629
12.8822	12.6293	0.381354	0.303523
12.8827	12.6288	0.381433	0.305158
12.8832	12.6283	0.383947	0.306464
12.8837	12.6279	0.380331	0.30578
12.8841	12.6274	0.380919	0.303998
12.8846	12.6269	0.380967	0.303663
12.8851	12.6264	0.384625	0.303723
12.8856	12.626	0.381924	0.306514
12.886	12.6255	0.382399	0.305193
12.8865	12.625	0.382104	0.30435
12.887	12.6245	0.382274	0.300802
12.8874	12.624	0.382685	0.301261
12.8879	12.6236	0.38127	0.302352
12.8884	12.6231	0.38123	0.300721
12.8889	12.6226	0.380322	0.299627
12.8893	12.6222	0.383112	0.299176
12.8898	12.6217	0.383494	0.298139
12.8903	12.6212	0.383112	0.299913
12.8907	12.6207	0.382236	0.299716
12.8912	12.6203	0.382137	0.297006
12.8917	12.6198	0.383659	0.295771
12.8922	12.6193	0.384117	0.297002
12.8926	12.6189	0.384955	0.297763
12.8931	12.6184	0.381827	0.297712
12.8936	12.6179	0.382829	0.29706
12.8941	12.6174	0.384729	0.296388
12.8945	12.617	0.382922	0.297615
12.895	12.6165	0.383171	0.299791
12.8955	12.616	0.382052	0.30001
12.8959	12.6155	0.383963	0.296758
12.8964	12.6151	0.38206	0.296197
12.8969	12.6146	0.383615	0.296645
12.8974	12.6141	0.383426	0.29817
12.8978	12.6136	0.381812	0.295763
12.8983	12.6132	0.381049	0.295575
12.8988	12.6127	0.383415	0.294259
