# 1304     AichiSR QXAFS
# Start     : 8.9544
# End       : 9.0544
# Dir       : Backward
# Points    : 300
# ScanTime  : 1.01549
# Date      : 13.04.23 22:22
# Ring Cur. : 25.5[mA]
12.7557	12.6117	0.301826	0.229922
12.7562	12.6122	0.299854	0.231631
12.7566	12.6127	0.302392	0.232588
12.7571	12.6131	0.305704	0.233675
12.7576	12.6136	0.302927	0.23448
12.7581	12.6141	0.302642	0.233789
12.7585	12.6145	0.305004	0.237538
12.759	12.615	0.303582	0.235801
12.7595	12.6155	0.304627	0.236349
12.7599	12.616	0.305767	0.237675
12.7604	12.6164	0.305152	0.23781
12.7609	12.6169	0.303219	0.238501
12.7614	12.6174	0.304475	0.237152
12.7618	12.6179	0.306133	0.238805
12.7623	12.6183	0.305275	0.238544
12.7628	12.6188	0.305689	0.239437
12.7632	12.6193	0.305036	0.239659
12.7637	12.6197	0.305251	0.238059
12.7642	12.6202	0.30606	0.238029
12.7647	12.6207	0.308022	0.239076
12.7651	12.6212	0.306839	0.240778
12.7656	12.6216	0.304399	0.239556
12.7661	12.6221	0.308629	0.24141
12.7666	12.6226	0.308826	0.241166
12.767	12.623	0.307615	0.240861
12.7675	12.6235	0.306615	0.241732
12.768	12.624	0.3096	0.244853
12.7684	12.6245	0.307588	0.242228
12.7689	12.6249	0.306378	0.24232
12.7694	12.6254	0.30877	0.244778
12.7699	12.6259	0.30631	0.245007
12.7703	12.6264	0.306622	0.245789
12.7708	12.6269	0.308248	0.243633
12.7713	12.6273	0.311408	0.247562
12.7717	12.6278	0.308139	0.247087
12.7722	12.6283	0.308704	0.248547
12.7727	12.6288	0.308756	0.249801
12.7732	12.6292	0.309238	0.247091
12.7736	12.6297	0.310347	0.247097
12.7741	12.6301	0.309806	0.248842
12.7746	12.6306	0.308232	0.247752
12.7751	12.6311	0.30812	0.247101
12.7755	12.6316	0.31078	0.24801
12.776	12.6321	0.311581	0.24671
12.7765	12.6325	0.310942	0.247062
12.7769	12.633	0.310082	0.247952
12.7774	12.6334	0.311303	0.248615
12.7779	12.6339	0.310829	0.247341
12.7784	12.6344	0.311156	0.247676
12.7788	12.6349	0.311989	0.249273
12.7793	12.6353	0.31115	0.250137
12.7798	12.6358	0.311012	0.250063
12.7802	12.6363	0.312776	0.249411
12.7807	12.6368	0.313859	0.251938
12.7812	12.6372	0.310514	0.25089
12.7817	12.6377	0.312712	0.253094
12.7821	12.6382	0.310951	0.252543
12.7826	12.6387	0.312202	0.252928
12.7831	12.6391	0.312703	0.25254
12.7836	12.6396	0.312392	0.25375
12.784	12.64	0.309907	0.255493
12.7845	12.6405	0.310219	0.25507
12.785	12.641	0.314921	0.255642
12.7854	12.6415	0.314632	0.255142
12.7859	12.6419	0.313656	0.256241
12.7864	12.6424	0.312787	0.256133
12.7869	12.6428	0.313811	0.256377
12.7873	12.6433	0.311356	0.253729
12.7878	12.6438	0.314659	0.253315
12.7883	12.6443	0.312785	0.254865
12.7887	12.6447	0.311252	0.252463
12.7892	12.6452	0.307963	0.250682
12.7897	12.6457	0.312067	0.250347
12.7902	12.6462	0.314311	0.251271
12.7906	12.6467	0.311812	0.248819
12.7911	12.6471	0.312314	0.249357
12.7916	12.6476	0.314952	0.25001
12.7921	12.6481	0.31392	0.246432
12.7925	12.6486	0.317673	0.245219
12.793	12.649	0.317334	0.244958
12.7935	12.6495	0.315167	0.244778
12.7939	12.65	0.31305	0.240992
12.7944	12.6504	0.315804	0.240518
12.7949	12.6509	0.31901	0.23767
12.7954	12.6514	0.315741	0.234577
12.7958	12.6519	0.316501	0.234978
12.7963	12.6523	0.315945	0.233003
12.7968	12.6528	0.316831	0.228861
12.7972	12.6533	0.3192	0.227614
12.7977	12.6537	0.317568	0.22804
12.7982	12.6542	0.31785	0.225727
12.7987	12.6547	0.317874	0.223991
12.7991	12.6552	0.318267	0.223437
12.7996	12.6557	0.320949	0.223601
12.8001	12.6561	0.318079	0.221369
12.8006	12.6566	0.317712	0.220507
12.801	12.6571	0.317314	0.21922
12.8015	12.6576	0.317239	0.217934
12.802	12.658	0.319595	0.218882
12.8024	12.6585	0.319143	0.220505
12.8029	12.659	0.317046	0.22103
12.8034	12.6594	0.316263	0.220628
12.8039	12.6599	0.31854	0.22133
12.8043	12.6604	0.321172	0.223282
12.8048	12.6608	0.320302	0.225223
12.8053	12.6613	0.320648	0.22731
12.8057	12.6618	0.320892	0.228357
12.8062	12.6623	0.318959	0.228753
12.8067	12.6627	0.323036	0.231748
12.8072	12.6632	0.320748	0.233553
12.8076	12.6636	0.318812	0.234457
12.8081	12.6641	0.319196	0.236592
12.8086	12.6646	0.319433	0.236394
12.8091	12.6651	0.32253	0.239384
12.8095	12.6655	0.320786	0.241595
12.81	12.666	0.32103	0.24542
12.8105	12.6665	0.319645	0.245645
12.8109	12.667	0.32042	0.245971
12.8114	12.6675	0.324247	0.249454
12.8119	12.6679	0.322971	0.253292
12.8124	12.6684	0.320956	0.255062
12.8128	12.6689	0.318968	0.254983
12.8133	12.6693	0.321522	0.256644
12.8138	12.6698	0.323413	0.259068
12.8142	12.6702	0.323103	0.262335
12.8147	12.6707	0.319337	0.264063
12.8152	12.6712	0.321683	0.265906
12.8157	12.6717	0.320288	0.266322
12.8161	12.6721	0.323225	0.268269
12.8166	12.6726	0.322723	0.271404
12.8171	12.6731	0.320169	0.272237
12.8176	12.6735	0.321083	0.272323
12.818	12.674	0.321559	0.272109
12.8185	12.6745	0.323704	0.275117
12.819	12.675	0.322408	0.276948
12.8194	12.6754	0.320577	0.276697
12.8199	12.6759	0.322935	0.277695
12.8204	12.6764	0.322415	0.276708
12.8209	12.6769	0.322312	0.277907
12.8213	12.6774	0.32289	0.280115
12.8218	12.6778	0.323521	0.280795
12.8223	12.6783	0.319487	0.277542
12.8227	12.6788	0.321371	0.276161
12.8232	12.6792	0.324336	0.277918
12.8237	12.6797	0.322112	0.276629
12.8242	12.6802	0.321026	0.274634
12.8246	12.6807	0.322669	0.272409
12.8251	12.6811	0.323195	0.268682
12.8256	12.6816	0.3228	0.267718
12.8261	12.6821	0.323283	0.265393
12.8265	12.6826	0.322183	0.263645
12.827	12.683	0.319606	0.258792
12.8275	12.6835	0.322462	0.257054
12.8279	12.684	0.324144	0.25487
12.8284	12.6844	0.323157	0.252884
12.8289	12.6849	0.320768	0.250876
12.8294	12.6854	0.322708	0.248721
12.8298	12.6859	0.321871	0.243511
12.8303	12.6864	0.323174	0.241318
12.8308	12.6868	0.324122	0.239057
12.8312	12.6873	0.322281	0.235351
12.8317	12.6878	0.321463	0.231166
12.8322	12.6883	0.321868	0.22735
12.8327	12.6887	0.326689	0.22559
12.8331	12.6892	0.324408	0.225225
12.8336	12.6896	0.323956	0.224441
12.8341	12.6901	0.32376	0.222846
12.8346	12.6906	0.325317	0.223568
12.835	12.6911	0.325611	0.226013
12.8355	12.6915	0.32485	0.230847
12.836	12.692	0.323556	0.23388
12.8364	12.6925	0.323569	0.237934
12.8369	12.6929	0.32356	0.241639
12.8374	12.6934	0.324552	0.246657
12.8379	12.6939	0.325	0.251288
12.8383	12.6943	0.32411	0.256751
12.8388	12.6948	0.323875	0.257915
12.8393	12.6953	0.322792	0.258932
12.8397	12.6958	0.325393	0.262673
12.8402	12.6962	0.325145	0.265651
12.8407	12.6967	0.323043	0.264361
12.8412	12.6972	0.322034	0.259739
12.8416	12.6977	0.322985	0.260289
12.8421	12.6981	0.325473	0.258024
12.8426	12.6986	0.324458	0.25688
12.8431	12.6991	0.323036	0.253714
12.8435	12.6995	0.324601	0.249169
12.844	12.7	0.323216	0.244094
12.8445	12.7005	0.323664	0.240639
12.8449	12.7009	0.324699	0.238526
12.8454	12.7014	0.322968	0.235249
12.8459	12.7019	0.320916	0.229806
12.8464	12.7024	0.323444	0.2281
12.8468	12.7028	0.325166	0.230509
12.8473	12.7033	0.324722	0.2288
12.8478	12.7038	0.324866	0.230709
12.8482	12.7042	0.323999	0.231985
12.8487	12.7047	0.325057	0.235392
12.8492	12.7052	0.326668	0.242652
12.8497	12.7057	0.327246	0.252443
12.8501	12.7062	0.323903	0.259876
12.8506	12.7066	0.322711	0.265451
12.8511	12.7071	0.323088	0.277021
12.8516	12.7076	0.326205	0.290356
12.852	12.7081	0.325987	0.302446
12.8525	12.7085	0.323631	0.315438
12.853	12.709	0.325024	0.329523
12.8534	12.7095	0.325268	0.342801
12.8539	12.7099	0.326811	0.355882
12.8544	12.7104	0.327438	0.373131
12.8549	12.7109	0.326022	0.38571
12.8553	12.7114	0.325491	0.394494
12.8558	12.7118	0.326044	0.406621
12.8563	12.7123	0.327111	0.419736
12.8567	12.7128	0.325922	0.429104
12.8572	12.7132	0.325025	0.438996
12.8577	12.7137	0.325297	0.44612
12.8582	12.7142	0.323972	0.450944
12.8586	12.7147	0.325211	0.461641
12.8591	12.7151	0.32698	0.473336
12.8596	12.7156	0.324501	0.481962
12.8601	12.7161	0.323074	0.485862
12.8605	12.7166	0.325224	0.496787
12.861	12.717	0.32581	0.505541
12.8615	12.7175	0.325536	0.514375
12.8619	12.718	0.325242	0.518804
12.8624	12.7185	0.325206	0.51729
12.8629	12.7189	0.325106	0.51336
12.8634	12.7194	0.326617	0.51314
12.8638	12.7198	0.326802	0.509562
12.8643	12.7203	0.322461	0.504617
12.8648	12.7208	0.321601	0.497938
12.8652	12.7213	0.323641	0.502577
12.8657	12.7217	0.322678	0.508926
12.8662	12.7222	0.323391	0.52307
12.8667	12.7227	0.322741	0.548387
12.8671	12.7231	0.324211	0.579957
12.8676	12.7236	0.321893	0.618113
12.8681	12.7241	0.323134	0.671384
12.8686	12.7245	0.323432	0.72966
12.869	12.725	0.319243	0.76997
12.8695	12.7255	0.317553	0.804091
12.87	12.726	0.321075	0.845457
12.8704	12.7264	0.322905	0.873551
12.8709	12.7269	0.32062	0.890881
12.8714	12.7274	0.320891	0.91002
12.8719	12.7279	0.322656	0.922046
12.8723	12.7283	0.32243	0.924767
12.8728	12.7288	0.323539	0.937124
12.8733	12.7293	0.325941	0.948747
12.8737	12.7297	0.324824	0.95225
12.8742	12.7302	0.32153	0.946403
12.8747	12.7307	0.324172	0.954312
12.8752	12.7312	0.325476	0.963206
12.8756	12.7317	0.323825	0.960604
12.8761	12.7321	0.323121	0.963934
12.8766	12.7326	0.32171	0.963158
12.8771	12.733	0.323469	0.961983
12.8775	12.7335	0.323716	0.968975
12.878	12.734	0.326747	0.976809
12.8785	12.7345	0.32417	0.974601
12.8789	12.735	0.321244	0.965002
12.8794	12.7354	0.324883	0.975189
12.8799	12.7359	0.325504	0.978775
12.8804	12.7364	0.324556	0.979157
12.8808	12.7369	0.323368	0.979574
12.8813	12.7374	0.32457	0.978255
12.8818	12.7378	0.325654	0.978207
12.8822	12.7383	0.324291	0.98022
12.8827	12.7388	0.32655	0.987132
12.8832	12.7392	0.324592	0.986028
12.8837	12.7397	0.323467	0.978271
12.8841	12.7402	0.32599	0.981671
12.8846	12.7406	0.3249	0.986065
12.8851	12.7411	0.326746	0.986718
12.8856	12.7416	0.324339	0.989368
12.886	12.7421	0.324577	0.98455
12.8865	12.7425	0.326733	0.989158
12.887	12.743	0.328912	0.99861
12.8874	12.7435	0.328067	0.996501
12.8879	12.7439	0.325745	0.993101
12.8884	12.7444	0.324333	0.985556
12.8889	12.7449	0.327437	0.98914
12.8893	12.7454	0.326391	0.992755
12.8898	12.7458	0.326678	0.992156
12.8903	12.7463	0.325625	0.994295
12.8907	12.7468	0.327829	0.995336
12.8912	12.7473	0.327565	0.993111
12.8917	12.7477	0.327242	0.992873
12.8922	12.7482	0.329131	1.00362
12.8926	12.7487	0.327576	0.999808
12.8931	12.7491	0.326883	0.99022
12.8936	12.7496	0.326903	0.995276
12.8941	12.7501	0.328619	0.99632
12.8945	12.7505	0.327279	0.997015
12.895	12.751	0.328284	1.00068
12.8955	12.7515	0.327342	0.995977
12.8959	12.752	0.327648	0.99285
12.8964	12.7524	0.32839	0.996208
12.8969	12.7529	0.328939	1.00793
12.8974	12.7533	0.327645	1.00024
12.8978	12.7538	0.327422	0.99531
12.8983	12.7543	0.328625	1.00166
12.8988	12.7548	0.327979	1.00335
