# 1304     AichiSR QXAFS
# Start     : 8.9544
# End       : 9.0544
# Dir       : Backward
# Points    : 300
# ScanTime  : 1.01549
# Date      : 13.04.23 22:28
# Ring Cur. : 25.4[mA]
12.7557	12.6118	0.293503	0.22568
12.7562	12.6123	0.291283	0.223845
12.7566	12.6127	0.294339	0.225446
12.7571	12.6132	0.29672	0.2284
12.7576	12.6136	0.294599	0.228542
12.7581	12.6141	0.294484	0.229433
12.7585	12.6146	0.29614	0.230895
12.759	12.6151	0.295734	0.228375
12.7595	12.6155	0.297661	0.230786
12.7599	12.616	0.298396	0.231507
12.7604	12.6165	0.296199	0.232468
12.7609	12.617	0.295169	0.22999
12.7614	12.6174	0.29739	0.230495
12.7618	12.6179	0.30041	0.233437
12.7623	12.6184	0.296908	0.231874
12.7628	12.6189	0.297291	0.232272
12.7632	12.6193	0.296982	0.232032
12.7637	12.6198	0.297472	0.229982
12.7642	12.6203	0.298374	0.232024
12.7647	12.6207	0.299299	0.233667
12.7651	12.6212	0.297461	0.233806
12.7656	12.6217	0.295588	0.23154
12.7661	12.6222	0.300838	0.234129
12.7666	12.6226	0.299558	0.23375
12.767	12.6231	0.299814	0.236144
12.7675	12.6236	0.299082	0.236808
12.768	12.624	0.299435	0.235465
12.7684	12.6245	0.298093	0.23425
12.7689	12.625	0.298478	0.236603
12.7694	12.6255	0.302003	0.239476
12.7699	12.626	0.296016	0.239412
12.7703	12.6264	0.298596	0.238192
12.7708	12.6269	0.298662	0.238094
12.7713	12.6274	0.301136	0.239558
12.7717	12.6279	0.299919	0.24041
12.7722	12.6284	0.301564	0.24284
12.7727	12.6288	0.300422	0.241001
12.7732	12.6293	0.301442	0.240308
12.7736	12.6297	0.302171	0.241251
12.7741	12.6302	0.301274	0.242397
12.7746	12.6307	0.300671	0.243161
12.7751	12.6312	0.300949	0.240881
12.7755	12.6316	0.302125	0.240304
12.776	12.6321	0.3025	0.24107
12.7765	12.6326	0.301753	0.241139
12.7769	12.633	0.301866	0.241298
12.7774	12.6335	0.300889	0.240037
12.7779	12.634	0.30169	0.239726
12.7784	12.6344	0.302479	0.241748
12.7788	12.6349	0.303918	0.243267
12.7793	12.6354	0.302642	0.244995
12.7798	12.6359	0.303215	0.243799
12.7802	12.6363	0.30655	0.245124
12.7807	12.6368	0.303954	0.243763
12.7812	12.6373	0.303439	0.245441
12.7817	12.6378	0.303864	0.248004
12.7821	12.6382	0.303752	0.247383
12.7826	12.6387	0.304752	0.246772
12.7831	12.6392	0.303328	0.245102
12.7836	12.6396	0.305555	0.250257
12.784	12.6401	0.304269	0.250601
12.7845	12.6406	0.303397	0.247455
12.785	12.641	0.306313	0.248831
12.7854	12.6415	0.306229	0.248763
12.7859	12.642	0.30628	0.249763
12.7864	12.6424	0.30597	0.249669
12.7869	12.6429	0.305839	0.249672
12.7873	12.6434	0.304568	0.247187
12.7878	12.6438	0.30442	0.247915
12.7883	12.6443	0.30389	0.248901
12.7887	12.6448	0.303323	0.247097
12.7892	12.6453	0.301213	0.245191
12.7897	12.6458	0.304932	0.244179
12.7902	12.6462	0.303856	0.244949
12.7906	12.6467	0.302833	0.244396
12.7911	12.6472	0.304521	0.243278
12.7916	12.6477	0.308272	0.242509
12.7921	12.6482	0.306443	0.240709
12.7925	12.6486	0.304449	0.238317
12.793	12.6491	0.30955	0.239556
12.7935	12.6496	0.307926	0.237829
12.7939	12.65	0.305403	0.233719
12.7944	12.6505	0.309019	0.232331
12.7949	12.651	0.308414	0.231875
12.7954	12.6515	0.308165	0.230365
12.7958	12.6519	0.307372	0.229201
12.7963	12.6524	0.309171	0.226108
12.7968	12.6529	0.308988	0.223707
12.7972	12.6533	0.308295	0.223156
12.7977	12.6538	0.308937	0.222651
12.7982	12.6543	0.308543	0.221178
12.7987	12.6548	0.309381	0.217789
12.7991	12.6552	0.312012	0.215971
12.7996	12.6557	0.311758	0.217634
12.8001	12.6562	0.310377	0.216337
12.8006	12.6567	0.30909	0.215836
12.801	12.6571	0.30959	0.213963
12.8015	12.6576	0.311077	0.213307
12.802	12.6581	0.309625	0.212892
12.8024	12.6586	0.310317	0.215342
12.8029	12.659	0.309162	0.21638
12.8034	12.6595	0.307284	0.214224
12.8039	12.66	0.311078	0.215819
12.8043	12.6604	0.311356	0.217363
12.8048	12.6609	0.310938	0.219682
12.8053	12.6614	0.310573	0.222286
12.8057	12.6619	0.312521	0.223043
12.8062	12.6623	0.312559	0.222907
12.8067	12.6628	0.312785	0.225681
12.8072	12.6632	0.313047	0.228932
12.8076	12.6637	0.31193	0.229731
12.8081	12.6642	0.311943	0.228038
12.8086	12.6646	0.314158	0.233166
12.8091	12.6651	0.313927	0.234743
12.8095	12.6656	0.310411	0.235156
12.81	12.6661	0.311808	0.237928
12.8105	12.6666	0.313891	0.238572
12.8109	12.667	0.312615	0.240784
12.8114	12.6675	0.311951	0.243248
12.8119	12.668	0.312964	0.246245
12.8124	12.6685	0.31333	0.248133
12.8128	12.6689	0.311903	0.246679
12.8133	12.6694	0.314879	0.251218
12.8138	12.6698	0.315253	0.254323
12.8142	12.6703	0.312845	0.25531
12.8147	12.6708	0.312256	0.257547
12.8152	12.6713	0.313758	0.259087
12.8157	12.6717	0.314719	0.259185
12.8161	12.6722	0.312853	0.261464
12.8166	12.6727	0.314189	0.264573
12.8171	12.6731	0.310576	0.264956
12.8176	12.6736	0.312671	0.264613
12.818	12.6741	0.31543	0.26739
12.8185	12.6745	0.313814	0.269046
12.819	12.675	0.310979	0.269134
12.8194	12.6755	0.313617	0.271213
12.8199	12.676	0.312901	0.268724
12.8204	12.6765	0.313608	0.269856
12.8209	12.6769	0.313401	0.271773
12.8213	12.6774	0.313957	0.273191
12.8218	12.6779	0.311989	0.271433
12.8223	12.6784	0.313827	0.269884
12.8227	12.6788	0.316782	0.269405
12.8232	12.6793	0.313663	0.270242
12.8237	12.6798	0.311955	0.268721
12.8242	12.6802	0.313213	0.267101
12.8246	12.6807	0.314019	0.264098
12.8251	12.6812	0.315429	0.261718
12.8256	12.6817	0.314524	0.260552
12.8261	12.6821	0.31453	0.259519
12.8265	12.6826	0.313672	0.257317
12.827	12.6831	0.312718	0.252973
12.8275	12.6835	0.315715	0.250968
12.8279	12.684	0.315532	0.249461
12.8284	12.6845	0.314926	0.248321
12.8289	12.685	0.313969	0.244379
12.8294	12.6855	0.313974	0.239526
12.8298	12.6859	0.316539	0.237961
12.8303	12.6864	0.314247	0.234646
12.8308	12.6869	0.314216	0.232109
12.8312	12.6874	0.315382	0.229271
12.8317	12.6879	0.314281	0.22466
12.8322	12.6883	0.317322	0.223996
12.8327	12.6888	0.316039	0.220071
12.8331	12.6892	0.316108	0.220309
12.8336	12.6897	0.315765	0.218843
12.8341	12.6902	0.314997	0.216921
12.8346	12.6906	0.315766	0.217111
12.835	12.6911	0.31347	0.220086
12.8355	12.6916	0.316568	0.22536
12.836	12.6921	0.315959	0.228563
12.8364	12.6925	0.312629	0.230229
12.8369	12.693	0.31592	0.235174
12.8374	12.6934	0.316184	0.240899
12.8379	12.6939	0.313527	0.246383
12.8383	12.6944	0.315916	0.250205
12.8388	12.6949	0.314652	0.251977
12.8393	12.6953	0.315893	0.252768
12.8397	12.6958	0.314664	0.256371
12.8402	12.6963	0.317168	0.25951
12.8407	12.6968	0.315477	0.256862
12.8412	12.6972	0.31441	0.25517
12.8416	12.6977	0.318092	0.254291
12.8421	12.6982	0.315843	0.252695
12.8426	12.6987	0.314406	0.248545
12.8431	12.6991	0.313985	0.246512
12.8435	12.6996	0.313321	0.241569
12.844	12.7	0.314373	0.238063
12.8445	12.7005	0.313448	0.234645
12.8449	12.701	0.315142	0.233928
12.8454	12.7015	0.313837	0.228683
12.8459	12.7019	0.313505	0.223841
12.8464	12.7024	0.31841	0.222751
12.8468	12.7029	0.316764	0.223994
12.8473	12.7033	0.314549	0.222609
12.8478	12.7038	0.314067	0.223066
12.8482	12.7043	0.316275	0.227069
12.8487	12.7048	0.317864	0.230714
12.8492	12.7053	0.313916	0.236286
12.8497	12.7057	0.315532	0.245509
12.8501	12.7062	0.315227	0.253005
12.8506	12.7067	0.314451	0.259269
12.8511	12.7072	0.317607	0.270976
12.8516	12.7077	0.316601	0.283295
12.852	12.7081	0.315638	0.294594
12.8525	12.7086	0.316117	0.306776
12.853	12.7091	0.317992	0.320783
12.8534	12.7095	0.319473	0.334416
12.8539	12.71	0.316195	0.347698
12.8544	12.7105	0.318529	0.363954
12.8549	12.711	0.318893	0.376256
12.8553	12.7114	0.31553	0.383063
12.8558	12.7119	0.319395	0.39755
12.8563	12.7124	0.317098	0.408462
12.8567	12.7128	0.315172	0.417563
12.8572	12.7133	0.314997	0.425115
12.8577	12.7138	0.316427	0.435308
12.8582	12.7142	0.317782	0.441155
12.8586	12.7147	0.315955	0.447445
12.8591	12.7152	0.316516	0.46317
12.8596	12.7157	0.317601	0.469451
12.8601	12.7162	0.316001	0.47577
12.8605	12.7166	0.319038	0.486844
12.861	12.7171	0.316995	0.494447
12.8615	12.7176	0.315926	0.501353
12.8619	12.7181	0.317705	0.505452
12.8624	12.7185	0.317326	0.503527
12.8629	12.719	0.314459	0.499433
12.8634	12.7194	0.313773	0.497253
12.8638	12.7199	0.315752	0.494352
12.8643	12.7204	0.312597	0.487062
12.8648	12.7208	0.310448	0.483573
12.8652	12.7213	0.316258	0.489459
12.8657	12.7218	0.314726	0.497714
12.8662	12.7223	0.31272	0.508184
12.8667	12.7227	0.315017	0.532812
12.8671	12.7232	0.315661	0.565121
12.8676	12.7236	0.314901	0.605709
12.8681	12.7241	0.312043	0.652461
12.8686	12.7246	0.311868	0.706009
12.869	12.7251	0.310695	0.749498
12.8695	12.7256	0.310532	0.785113
12.87	12.726	0.312963	0.821712
12.8704	12.7265	0.313734	0.85088
12.8709	12.727	0.311718	0.866723
12.8714	12.7275	0.31208	0.880254
12.8719	12.7279	0.313578	0.894713
12.8723	12.7284	0.314636	0.90069
12.8728	12.7289	0.312335	0.907506
12.8733	12.7293	0.313208	0.919137
12.8737	12.7298	0.314692	0.922209
12.8742	12.7303	0.314329	0.925514
12.8747	12.7307	0.316537	0.928948
12.8752	12.7312	0.31705	0.938046
12.8756	12.7317	0.314289	0.933898
12.8761	12.7322	0.313517	0.933622
12.8766	12.7326	0.316267	0.939983
12.8771	12.7331	0.31497	0.936865
12.8775	12.7336	0.312605	0.934709
12.878	12.7341	0.314546	0.942705
12.8785	12.7345	0.315028	0.944676
12.8789	12.735	0.312496	0.938476
12.8794	12.7355	0.316152	0.946421
12.8799	12.736	0.316894	0.956398
12.8804	12.7365	0.314828	0.952434
12.8808	12.7369	0.314222	0.948756
12.8813	12.7374	0.316135	0.955213
12.8818	12.7379	0.316981	0.953479
12.8822	12.7384	0.315646	0.952898
12.8827	12.7388	0.315953	0.956794
12.8832	12.7393	0.315274	0.953095
12.8837	12.7398	0.313978	0.949366
12.8841	12.7402	0.31983	0.965682
12.8846	12.7407	0.319245	0.963511
12.8851	12.7412	0.315582	0.958721
12.8856	12.7417	0.314641	0.95876
12.886	12.7421	0.316193	0.960329
12.8865	12.7426	0.317133	0.95927
12.887	12.7431	0.31667	0.961312
12.8874	12.7435	0.318329	0.969938
12.8879	12.744	0.317153	0.964293
12.8884	12.7445	0.316145	0.959116
12.8889	12.7449	0.318405	0.965066
12.8893	12.7454	0.319404	0.971613
12.8898	12.7459	0.316143	0.965652
12.8903	12.7464	0.315424	0.96161
12.8907	12.7469	0.318706	0.967262
12.8912	12.7473	0.316986	0.96315
12.8917	12.7478	0.315341	0.964174
12.8922	12.7483	0.316827	0.973
12.8926	12.7487	0.317219	0.965863
12.8931	12.7492	0.31589	0.965698
12.8936	12.7497	0.320168	0.971756
12.8941	12.7501	0.319974	0.973827
12.8945	12.7506	0.317861	0.973251
12.895	12.7511	0.320957	0.976366
12.8955	12.7516	0.319257	0.974198
12.8959	12.752	0.31863	0.969938
12.8964	12.7525	0.320243	0.974745
12.8969	12.7529	0.319388	0.979787
12.8974	12.7534	0.319128	0.972752
12.8978	12.7539	0.319137	0.968694
12.8983	12.7543	0.320365	0.975862
12.8988	12.7548	0.321047	0.979577
