# 1304     AichiSR QXAFS
# Start     : 8.9544
# End       : 9.0544
# Dir       : Backward
# Points    : 300
# ScanTime  : 1.01549
# Date      : 13.04.23 22:23
# Ring Cur. : 25.4[mA]
12.7557	12.6117	0.305425	0.234466
12.7562	12.6122	0.303936	0.233581
12.7566	12.6127	0.30673	0.235821
12.7571	12.6131	0.309187	0.236206
12.7576	12.6136	0.307239	0.2367
12.7581	12.6141	0.30539	0.238852
12.7585	12.6145	0.307085	0.239066
12.759	12.615	0.307707	0.237812
12.7595	12.6155	0.307472	0.238315
12.7599	12.616	0.308289	0.240105
12.7604	12.6164	0.307819	0.239383
12.7609	12.6169	0.307003	0.239344
12.7614	12.6174	0.307217	0.237735
12.7618	12.6179	0.309859	0.239668
12.7623	12.6183	0.308957	0.239908
12.7628	12.6188	0.309083	0.241178
12.7632	12.6193	0.307919	0.240485
12.7637	12.6197	0.307806	0.239521
12.7642	12.6202	0.307687	0.24051
12.7647	12.6207	0.309358	0.241015
12.7651	12.6212	0.306709	0.241398
12.7656	12.6217	0.305163	0.238502
12.7661	12.6221	0.309138	0.240588
12.7666	12.6226	0.308659	0.240657
12.767	12.6231	0.307973	0.24218
12.7675	12.6235	0.307835	0.242883
12.768	12.624	0.309198	0.243771
12.7684	12.6245	0.307761	0.242361
12.7689	12.6249	0.308031	0.242551
12.7694	12.6254	0.308805	0.24625
12.7699	12.6259	0.308351	0.246635
12.7703	12.6264	0.306177	0.246195
12.7708	12.6269	0.307608	0.245567
12.7713	12.6273	0.309911	0.246833
12.7717	12.6278	0.308205	0.247862
12.7722	12.6283	0.309367	0.249117
12.7727	12.6288	0.308518	0.247562
12.7732	12.6292	0.308605	0.246676
12.7736	12.6297	0.309332	0.248061
12.7741	12.6302	0.309288	0.248567
12.7746	12.6306	0.306488	0.247054
12.7751	12.6311	0.30813	0.24754
12.7755	12.6316	0.310658	0.246455
12.776	12.6321	0.308947	0.245926
12.7765	12.6325	0.309207	0.24689
12.7769	12.633	0.309056	0.248182
12.7774	12.6334	0.308536	0.246963
12.7779	12.6339	0.309619	0.246192
12.7784	12.6344	0.308482	0.245726
12.7788	12.6349	0.309283	0.24781
12.7793	12.6353	0.310341	0.249007
12.7798	12.6358	0.309296	0.246874
12.7802	12.6363	0.308949	0.248867
12.7807	12.6368	0.310899	0.24827
12.7812	12.6372	0.307398	0.248558
12.7817	12.6377	0.310232	0.251059
12.7821	12.6382	0.310364	0.250172
12.7826	12.6387	0.31105	0.250066
12.7831	12.6391	0.309914	0.249976
12.7836	12.6396	0.312175	0.253854
12.784	12.64	0.309659	0.252632
12.7845	12.6405	0.309732	0.252617
12.785	12.641	0.310769	0.25361
12.7854	12.6415	0.314681	0.255454
12.7859	12.6419	0.310814	0.253977
12.7864	12.6424	0.310687	0.254856
12.7869	12.6429	0.311338	0.252999
12.7873	12.6433	0.308482	0.250906
12.7878	12.6438	0.309566	0.251145
12.7883	12.6443	0.309514	0.251035
12.7887	12.6447	0.30753	0.250788
12.7892	12.6452	0.306876	0.248448
12.7897	12.6457	0.308667	0.248188
12.7902	12.6462	0.310763	0.247557
12.7906	12.6467	0.308145	0.247306
12.7911	12.6471	0.307612	0.247278
12.7916	12.6476	0.310696	0.24529
12.7921	12.6481	0.310092	0.242231
12.7925	12.6486	0.311828	0.241962
12.793	12.649	0.311394	0.242492
12.7935	12.6495	0.311356	0.240986
12.7939	12.65	0.310664	0.236429
12.7944	12.6504	0.312845	0.235483
12.7949	12.6509	0.31415	0.234826
12.7954	12.6514	0.3111	0.233078
12.7958	12.6519	0.311779	0.231813
12.7963	12.6523	0.314408	0.230598
12.7968	12.6528	0.315284	0.226623
12.7972	12.6533	0.315026	0.226265
12.7977	12.6537	0.315159	0.226849
12.7982	12.6542	0.314136	0.225103
12.7987	12.6547	0.313353	0.221761
12.7991	12.6552	0.317123	0.220166
12.7996	12.6557	0.3165	0.219958
12.8001	12.6561	0.31374	0.218531
12.8006	12.6566	0.31319	0.218834
12.801	12.6571	0.31525	0.218032
12.8015	12.6576	0.315693	0.216192
12.802	12.658	0.316578	0.217199
12.8024	12.6585	0.317918	0.219152
12.8029	12.659	0.314389	0.219386
12.8034	12.6594	0.31554	0.219541
12.8039	12.6599	0.317948	0.220778
12.8043	12.6604	0.318661	0.222766
12.8048	12.6609	0.31814	0.224495
12.8053	12.6613	0.317559	0.226742
12.8057	12.6618	0.318149	0.227024
12.8062	12.6623	0.319529	0.227246
12.8067	12.6627	0.318565	0.23031
12.8072	12.6632	0.319562	0.234048
12.8076	12.6636	0.317519	0.23421
12.8081	12.6641	0.317444	0.234954
12.8086	12.6646	0.320945	0.236669
12.8091	12.6651	0.319628	0.23944
12.8095	12.6656	0.319191	0.241363
12.81	12.666	0.319561	0.243346
12.8105	12.6665	0.319792	0.244135
12.8109	12.667	0.320385	0.246729
12.8114	12.6675	0.321264	0.249968
12.8119	12.6679	0.322172	0.252555
12.8124	12.6684	0.317948	0.252978
12.8128	12.6689	0.317652	0.253716
12.8133	12.6693	0.323031	0.258272
12.8138	12.6698	0.322502	0.260066
12.8142	12.6702	0.320397	0.262247
12.8147	12.6707	0.318352	0.262317
12.8152	12.6712	0.321508	0.265101
12.8157	12.6717	0.320553	0.266018
12.8161	12.6721	0.322934	0.268184
12.8166	12.6726	0.322987	0.272506
12.8171	12.6731	0.320429	0.273179
12.8176	12.6735	0.32098	0.271817
12.818	12.674	0.323567	0.273148
12.8185	12.6745	0.324244	0.276498
12.819	12.675	0.322826	0.276569
12.8194	12.6755	0.321133	0.276685
12.8199	12.6759	0.323732	0.277089
12.8204	12.6764	0.322668	0.277178
12.8209	12.6769	0.323007	0.278246
12.8213	12.6774	0.324033	0.281744
12.8218	12.6779	0.322035	0.279405
12.8223	12.6783	0.32157	0.278068
12.8227	12.6788	0.3247	0.278302
12.8232	12.6793	0.325339	0.278786
12.8237	12.6797	0.324369	0.277917
12.8242	12.6802	0.323403	0.275831
12.8246	12.6807	0.323156	0.273651
12.8251	12.6812	0.324364	0.269334
12.8256	12.6816	0.32554	0.268178
12.8261	12.6821	0.323909	0.267993
12.8265	12.6826	0.323414	0.264765
12.827	12.683	0.322835	0.25972
12.8275	12.6835	0.324102	0.258278
12.8279	12.684	0.324096	0.256648
12.8284	12.6844	0.322319	0.253943
12.8289	12.6849	0.322044	0.252265
12.8294	12.6854	0.324403	0.248618
12.8298	12.6859	0.324331	0.244687
12.8303	12.6864	0.323603	0.242326
12.8308	12.6868	0.326985	0.242128
12.8312	12.6873	0.324572	0.236311
12.8317	12.6878	0.324959	0.232115
12.8322	12.6883	0.328057	0.229723
12.8327	12.6887	0.327451	0.227908
12.8331	12.6892	0.327008	0.226594
12.8336	12.6897	0.326206	0.225881
12.8341	12.6901	0.326597	0.224544
12.8346	12.6906	0.32485	0.22383
12.835	12.6911	0.32605	0.227825
12.8355	12.6915	0.327448	0.232745
12.836	12.692	0.325095	0.2361
12.8364	12.6925	0.32501	0.238221
12.8369	12.6929	0.328843	0.244062
12.8374	12.6934	0.328116	0.250145
12.8379	12.6939	0.325852	0.254134
12.8383	12.6943	0.326708	0.258499
12.8388	12.6948	0.327776	0.259524
12.8393	12.6953	0.326393	0.260847
12.8397	12.6958	0.327799	0.264941
12.8402	12.6962	0.327818	0.267861
12.8407	12.6967	0.32473	0.264897
12.8412	12.6972	0.324882	0.262681
12.8416	12.6977	0.328713	0.262189
12.8421	12.6981	0.327943	0.260628
12.8426	12.6986	0.326309	0.258815
12.8431	12.6991	0.325964	0.254624
12.8435	12.6995	0.325315	0.249267
12.844	12.7	0.327892	0.246551
12.8445	12.7005	0.326205	0.244256
12.8449	12.7009	0.3266	0.241511
12.8454	12.7014	0.325519	0.23616
12.8459	12.7019	0.324762	0.232049
12.8464	12.7024	0.328082	0.230668
12.8468	12.7028	0.327643	0.2309
12.8473	12.7033	0.326238	0.231406
12.8478	12.7038	0.325226	0.23198
12.8482	12.7042	0.327691	0.233782
12.8487	12.7047	0.328917	0.238074
12.8492	12.7052	0.327723	0.245652
12.8497	12.7057	0.328794	0.255765
12.8501	12.7062	0.329369	0.262334
12.8506	12.7066	0.327442	0.267029
12.8511	12.7071	0.331357	0.281031
12.8516	12.7076	0.331922	0.295662
12.852	12.7081	0.328199	0.306685
12.8525	12.7086	0.328474	0.319471
12.853	12.709	0.329585	0.333651
12.8534	12.7095	0.330312	0.34627
12.8539	12.7099	0.329164	0.360787
12.8544	12.7104	0.330376	0.376701
12.8549	12.7109	0.328938	0.388522
12.8553	12.7114	0.327816	0.396946
12.8558	12.7118	0.330226	0.413471
12.8563	12.7123	0.330746	0.425267
12.8567	12.7128	0.328755	0.434312
12.8572	12.7132	0.329475	0.442408
12.8577	12.7137	0.328057	0.450226
12.8582	12.7142	0.330826	0.460185
12.8586	12.7147	0.330545	0.470529
12.8591	12.7151	0.329071	0.477321
12.8596	12.7156	0.330162	0.484825
12.8601	12.7161	0.328186	0.492222
12.8605	12.7166	0.330651	0.504065
12.861	12.7171	0.329797	0.513212
12.8615	12.7175	0.328351	0.518665
12.8619	12.718	0.328024	0.522439
12.8624	12.7185	0.328468	0.522428
12.8629	12.7189	0.328669	0.520288
12.8634	12.7194	0.328128	0.518385
12.8638	12.7198	0.330068	0.516016
12.8643	12.7203	0.328087	0.510489
12.8648	12.7208	0.326021	0.505742
12.8652	12.7213	0.32852	0.510876
12.8657	12.7217	0.328442	0.519486
12.8662	12.7222	0.326586	0.532805
12.8667	12.7227	0.327004	0.556439
12.8671	12.7231	0.32588	0.586491
12.8676	12.7236	0.326589	0.627905
12.8681	12.7241	0.326198	0.679576
12.8686	12.7245	0.324392	0.737322
12.869	12.725	0.322822	0.776267
12.8695	12.7255	0.322088	0.815313
12.87	12.726	0.326349	0.857076
12.8704	12.7264	0.326208	0.886828
12.8709	12.7269	0.327028	0.906979
12.8714	12.7274	0.327196	0.920015
12.8719	12.7279	0.327979	0.932795
12.8723	12.7284	0.327564	0.940484
12.8728	12.7288	0.327359	0.951801
12.8733	12.7293	0.329513	0.961927
12.8737	12.7297	0.327934	0.961714
12.8742	12.7302	0.326968	0.958788
12.8747	12.7307	0.326645	0.964315
12.8752	12.7312	0.329744	0.976005
12.8756	12.7317	0.329319	0.977525
12.8761	12.7321	0.326783	0.975339
12.8766	12.7326	0.326848	0.977386
12.8771	12.7331	0.33064	0.982795
12.8775	12.7335	0.328966	0.98414
12.878	12.734	0.330293	0.989774
12.8785	12.7345	0.329556	0.988818
12.8789	12.735	0.327289	0.985771
12.8794	12.7354	0.33073	0.988591
12.8799	12.7359	0.330589	0.995511
12.8804	12.7364	0.329796	0.997017
12.8808	12.7369	0.328593	0.991108
12.8813	12.7374	0.327414	0.99301
12.8818	12.7378	0.329514	0.991125
12.8822	12.7383	0.329061	0.996888
12.8827	12.7388	0.330514	1.00356
12.8832	12.7392	0.330187	1.00046
12.8837	12.7397	0.328665	0.992315
12.8841	12.7402	0.332694	0.9994
12.8846	12.7406	0.333173	1.00332
12.8851	12.7411	0.332044	1.00453
12.8856	12.7416	0.330788	1.00586
12.886	12.7421	0.33175	1.00462
12.8865	12.7425	0.332438	1.00073
12.887	12.743	0.33104	1.00421
12.8874	12.7435	0.333681	1.00834
12.8879	12.7439	0.329459	1.00314
12.8884	12.7444	0.328598	1.00039
12.8889	12.7449	0.332286	1.0098
12.8893	12.7454	0.331803	1.00748
12.8898	12.7458	0.331078	1.01031
12.8903	12.7463	0.332314	1.01277
12.8907	12.7468	0.332085	1.01134
12.8912	12.7473	0.331768	1.00681
12.8917	12.7478	0.332338	1.01345
12.8922	12.7482	0.332675	1.01777
12.8926	12.7487	0.333326	1.01174
12.8931	12.7492	0.332187	1.00787
12.8936	12.7496	0.333419	1.0117
12.8941	12.7501	0.330831	1.01322
12.8945	12.7505	0.331021	1.01276
12.895	12.751	0.332163	1.01033
12.8955	12.7515	0.331732	1.01327
12.8959	12.752	0.333311	1.0083
12.8964	12.7524	0.332113	1.01133
12.8969	12.7529	0.334336	1.02079
12.8974	12.7534	0.332353	1.01253
12.8978	12.7538	0.331305	1.01008
12.8983	12.7543	0.333386	1.01468
12.8988	12.7548	0.334316	1.01757
