# 1304     AichiSR QXAFS
# Start     : 8.9544
# End       : 9.0544
# Dir       : Backward
# Points    : 300
# ScanTime  : 1.01549
# Date      : 13.04.23 22:32
# Ring Cur. : 25.6[mA]
12.7557	12.6118	0.313445	0.237457
12.7562	12.6123	0.311839	0.238473
12.7566	12.6128	0.310488	0.240213
12.7571	12.6132	0.311461	0.240304
12.7576	12.6137	0.311947	0.239311
12.7581	12.6142	0.311936	0.240215
12.7585	12.6146	0.31445	0.243515
12.759	12.6151	0.311985	0.244133
12.7595	12.6156	0.311268	0.241894
12.7599	12.6161	0.312814	0.241988
12.7604	12.6165	0.313879	0.24343
12.7609	12.617	0.313752	0.244834
12.7614	12.6175	0.314103	0.244809
12.7618	12.618	0.313548	0.243766
12.7623	12.6184	0.312556	0.241645
12.7628	12.6189	0.31418	0.244456
12.7632	12.6194	0.316652	0.247065
12.7637	12.6198	0.313306	0.245937
12.7642	12.6203	0.312001	0.243292
12.7647	12.6208	0.315145	0.244512
12.7651	12.6213	0.314581	0.246018
12.7656	12.6218	0.311866	0.245024
12.7661	12.6222	0.314687	0.248243
12.7666	12.6227	0.313152	0.246293
12.767	12.6231	0.315772	0.24638
12.7675	12.6236	0.313818	0.247992
12.768	12.6241	0.316696	0.251245
12.7684	12.6246	0.314351	0.250079
12.7689	12.625	0.311334	0.24758
12.7694	12.6255	0.315677	0.249298
12.7699	12.626	0.315123	0.250666
12.7703	12.6265	0.31517	0.253219
12.7708	12.627	0.313118	0.252305
12.7713	12.6274	0.314011	0.251365
12.7717	12.6279	0.314636	0.250264
12.7722	12.6284	0.315422	0.252395
12.7727	12.6289	0.315943	0.254138
12.7732	12.6293	0.314104	0.253137
12.7736	12.6298	0.313119	0.251273
12.7741	12.6302	0.316245	0.252751
12.7746	12.6307	0.315351	0.252506
12.7751	12.6312	0.314465	0.252526
12.7755	12.6317	0.315583	0.253495
12.776	12.6321	0.315295	0.252
12.7765	12.6326	0.315901	0.250613
12.7769	12.6331	0.317277	0.251484
12.7774	12.6335	0.31869	0.253945
12.7779	12.634	0.315191	0.254232
12.7784	12.6345	0.313092	0.250607
12.7788	12.635	0.31691	0.252488
12.7793	12.6354	0.317812	0.253979
12.7798	12.6359	0.317089	0.253145
12.7802	12.6364	0.316719	0.255951
12.7807	12.6369	0.316235	0.253114
12.7812	12.6373	0.315954	0.25336
12.7817	12.6378	0.318501	0.256466
12.7821	12.6383	0.318836	0.258902
12.7826	12.6388	0.31709	0.258447
12.7831	12.6392	0.316528	0.255289
12.7836	12.6397	0.319317	0.258669
12.784	12.6401	0.317771	0.258232
12.7845	12.6406	0.316612	0.260053
12.785	12.6411	0.318009	0.261533
12.7854	12.6416	0.316342	0.258468
12.7859	12.642	0.316225	0.257659
12.7864	12.6425	0.318478	0.259908
12.7869	12.6429	0.319067	0.261893
12.7873	12.6434	0.316321	0.25794
12.7878	12.6439	0.315538	0.256678
12.7883	12.6444	0.316646	0.256288
12.7887	12.6448	0.316487	0.255838
12.7892	12.6453	0.315442	0.254613
12.7897	12.6458	0.316453	0.254822
12.7902	12.6463	0.314868	0.253622
12.7906	12.6468	0.315929	0.250542
12.7911	12.6472	0.317628	0.251846
12.7916	12.6477	0.318654	0.25245
12.7921	12.6482	0.31613	0.250482
12.7925	12.6487	0.316623	0.246541
12.793	12.6491	0.319034	0.246049
12.7935	12.6496	0.317454	0.2446
12.7939	12.6501	0.318695	0.244892
12.7944	12.6505	0.318346	0.242718
12.7949	12.651	0.318731	0.238269
12.7954	12.6515	0.319794	0.235619
12.7958	12.652	0.318769	0.235499
12.7963	12.6524	0.321863	0.236028
12.7968	12.6529	0.320362	0.233656
12.7972	12.6534	0.318663	0.229111
12.7977	12.6538	0.322321	0.228187
12.7982	12.6543	0.322198	0.228369
12.7987	12.6548	0.32041	0.226922
12.7991	12.6553	0.321741	0.225303
12.7996	12.6558	0.319406	0.222181
12.8001	12.6562	0.320421	0.221195
12.8006	12.6567	0.320741	0.222459
12.801	12.6572	0.320784	0.223056
12.8015	12.6577	0.31862	0.221656
12.802	12.6581	0.319477	0.220352
12.8024	12.6586	0.322915	0.220559
12.8029	12.6591	0.320754	0.221358
12.8034	12.6595	0.321237	0.224293
12.8039	12.66	0.322854	0.225986
12.8043	12.6605	0.320114	0.224102
12.8048	12.6609	0.323099	0.226523
12.8053	12.6614	0.322068	0.229481
12.8057	12.6619	0.32443	0.232783
12.8062	12.6624	0.321166	0.231691
12.8067	12.6628	0.32123	0.231955
12.8072	12.6633	0.323745	0.235146
12.8076	12.6637	0.322332	0.236541
12.8081	12.6642	0.322891	0.238749
12.8086	12.6647	0.32248	0.241304
12.8091	12.6652	0.321366	0.240267
12.8095	12.6657	0.323068	0.241976
12.81	12.6661	0.323164	0.246336
12.8105	12.6666	0.325615	0.251324
12.8109	12.6671	0.323618	0.250952
12.8114	12.6676	0.321937	0.250105
12.8119	12.668	0.326344	0.254678
12.8124	12.6685	0.324482	0.256978
12.8128	12.669	0.324938	0.260079
12.8133	12.6694	0.323724	0.26162
12.8138	12.6699	0.323836	0.262073
12.8142	12.6703	0.324027	0.262933
12.8147	12.6708	0.323803	0.266757
12.8152	12.6713	0.326319	0.271018
12.8157	12.6718	0.32126	0.268698
12.8161	12.6722	0.320663	0.269147
12.8166	12.6727	0.326791	0.272868
12.8171	12.6732	0.324603	0.274107
12.8176	12.6736	0.322132	0.276131
12.818	12.6741	0.324951	0.276763
12.8185	12.6746	0.32448	0.276755
12.819	12.6751	0.322573	0.277375
12.8194	12.6755	0.324323	0.278799
12.8199	12.676	0.325331	0.281562
12.8204	12.6765	0.322926	0.280199
12.8209	12.677	0.322209	0.278441
12.8213	12.6775	0.32583	0.280005
12.8218	12.678	0.323744	0.28109
12.8223	12.6784	0.323581	0.280652
12.8227	12.6789	0.323379	0.279862
12.8232	12.6794	0.324445	0.27708
12.8237	12.6798	0.326389	0.275903
12.8242	12.6803	0.323659	0.275257
12.8246	12.6808	0.325512	0.274893
12.8251	12.6813	0.322799	0.270287
12.8256	12.6817	0.323631	0.266182
12.8261	12.6822	0.325363	0.265577
12.8265	12.6826	0.323756	0.264621
12.827	12.6831	0.322331	0.261052
12.8275	12.6836	0.322236	0.25835
12.8279	12.6841	0.322212	0.254055
12.8284	12.6845	0.323614	0.252072
12.8289	12.685	0.323447	0.251058
12.8294	12.6855	0.324436	0.248817
12.8298	12.686	0.32282	0.244441
12.8303	12.6865	0.322914	0.240672
12.8308	12.6869	0.326021	0.23748
12.8312	12.6874	0.325061	0.236014
12.8317	12.6879	0.32368	0.23132
12.8322	12.6884	0.325276	0.229092
12.8327	12.6888	0.324851	0.224394
12.8331	12.6893	0.325422	0.22331
12.8336	12.6897	0.325367	0.224565
12.8341	12.6902	0.326471	0.225465
12.8346	12.6907	0.323944	0.225091
12.835	12.6912	0.32283	0.225523
12.8355	12.6916	0.325889	0.230362
12.836	12.6921	0.324592	0.236081
12.8364	12.6926	0.323504	0.241357
12.8369	12.693	0.323568	0.2441
12.8374	12.6935	0.323684	0.247162
12.8379	12.694	0.324589	0.252512
12.8383	12.6944	0.32543	0.25872
12.8388	12.6949	0.324215	0.262526
12.8393	12.6954	0.32298	0.261183
12.8397	12.6959	0.323214	0.261437
12.8402	12.6963	0.325031	0.263167
12.8407	12.6968	0.323179	0.26449
12.8412	12.6973	0.323073	0.263134
12.8416	12.6978	0.322586	0.260183
12.8421	12.6982	0.323603	0.257887
12.8426	12.6987	0.325761	0.255171
12.8431	12.6992	0.32579	0.253608
12.8435	12.6996	0.324467	0.250699
12.844	12.7001	0.323428	0.243542
12.8445	12.7006	0.321971	0.238462
12.8449	12.701	0.324434	0.236811
12.8454	12.7015	0.323697	0.235434
12.8459	12.702	0.3232	0.2314
12.8464	12.7025	0.32356	0.228582
12.8468	12.7029	0.326236	0.227273
12.8473	12.7034	0.324868	0.227011
12.8478	12.7039	0.323835	0.229843
12.8482	12.7043	0.323659	0.235376
12.8487	12.7048	0.324671	0.237554
12.8492	12.7053	0.324158	0.242825
12.8497	12.7058	0.325222	0.252131
12.8501	12.7063	0.324879	0.262928
12.8506	12.7067	0.322745	0.27097
12.8511	12.7072	0.325679	0.282959
12.8516	12.7077	0.326105	0.294538
12.852	12.7082	0.325018	0.305491
12.8525	12.7086	0.326287	0.321311
12.853	12.7091	0.327411	0.337918
12.8534	12.7096	0.326516	0.347821
12.8539	12.71	0.326088	0.359318
12.8544	12.7105	0.326663	0.375922
12.8549	12.711	0.326861	0.392357
12.8553	12.7115	0.325608	0.403724
12.8558	12.7119	0.326604	0.412588
12.8563	12.7124	0.328536	0.424706
12.8567	12.7129	0.326866	0.432638
12.8572	12.7133	0.326856	0.445967
12.8577	12.7138	0.327044	0.454999
12.8582	12.7143	0.328491	0.460105
12.8586	12.7148	0.328241	0.467123
12.8591	12.7152	0.328781	0.477441
12.8596	12.7157	0.330192	0.487917
12.8601	12.7162	0.329202	0.49742
12.8605	12.7167	0.329	0.50637
12.861	12.7171	0.329424	0.514005
12.8615	12.7176	0.327979	0.51684
12.8619	12.7181	0.328646	0.523896
12.8624	12.7186	0.328	0.525314
12.8629	12.719	0.326926	0.519276
12.8634	12.7195	0.327939	0.514344
12.8638	12.7199	0.329302	0.512615
12.8643	12.7204	0.327648	0.509335
12.8648	12.7209	0.326044	0.508238
12.8652	12.7214	0.329182	0.51283
12.8657	12.7218	0.330002	0.519896
12.8662	12.7223	0.326898	0.533003
12.8667	12.7228	0.327963	0.563692
12.8671	12.7232	0.329079	0.605093
12.8676	12.7237	0.325557	0.644171
12.8681	12.7242	0.326653	0.695566
12.8686	12.7246	0.326668	0.753355
12.869	12.7251	0.324965	0.796714
12.8695	12.7256	0.324589	0.839738
12.87	12.7261	0.326967	0.876052
12.8704	12.7265	0.327647	0.898
12.8709	12.727	0.326398	0.911534
12.8714	12.7275	0.328276	0.931489
12.8719	12.728	0.329388	0.947163
12.8723	12.7284	0.329325	0.944433
12.8728	12.7289	0.330644	0.954837
12.8733	12.7294	0.331564	0.966158
12.8737	12.7298	0.329017	0.96585
12.8742	12.7303	0.329584	0.971612
12.8747	12.7308	0.330493	0.977766
12.8752	12.7313	0.33135	0.979003
12.8756	12.7317	0.329212	0.977697
12.8761	12.7322	0.329837	0.983861
12.8766	12.7327	0.331653	0.99053
12.8771	12.7331	0.329508	0.986721
12.8775	12.7336	0.333691	0.990731
12.878	12.7341	0.330843	0.992539
12.8785	12.7346	0.330626	0.994455
12.8789	12.7351	0.330593	0.996948
12.8794	12.7355	0.331672	0.99792
12.8799	12.736	0.33347	0.999941
12.8804	12.7365	0.331732	0.999282
12.8808	12.737	0.332828	1.00367
12.8813	12.7375	0.331198	1.00462
12.8818	12.7379	0.330931	1.00409
12.8822	12.7384	0.333647	1.00314
12.8827	12.7389	0.333604	1.00819
12.8832	12.7393	0.330997	1.00613
12.8837	12.7398	0.331953	1.00776
12.8841	12.7403	0.333561	1.01191
12.8846	12.7408	0.33602	1.01288
12.8851	12.7412	0.331889	1.00995
12.8856	12.7417	0.333155	1.01426
12.886	12.7422	0.335886	1.01761
12.8865	12.7426	0.334155	1.01557
12.887	12.7431	0.334962	1.01504
12.8874	12.7436	0.334918	1.01949
12.8879	12.744	0.335576	1.02066
12.8884	12.7445	0.335083	1.01897
12.8889	12.745	0.334323	1.01977
12.8893	12.7455	0.337108	1.01873
12.8898	12.7459	0.334618	1.01975
12.8903	12.7464	0.335575	1.02248
12.8907	12.7469	0.33423	1.02348
12.8912	12.7474	0.335329	1.01862
12.8917	12.7479	0.337429	1.02537
12.8922	12.7483	0.336903	1.02557
12.8926	12.7488	0.336236	1.02398
12.8931	12.7492	0.334509	1.02955
12.8936	12.7497	0.336567	1.02977
12.8941	12.7502	0.339064	1.02518
12.8945	12.7506	0.33538	1.02497
12.895	12.7511	0.336972	1.02925
12.8955	12.7516	0.337542	1.03077
12.8959	12.7521	0.336307	1.02219
12.8964	12.7525	0.337717	1.02279
12.8969	12.753	0.337295	1.02869
12.8974	12.7535	0.336949	1.03319
12.8978	12.7539	0.335976	1.02762
12.8983	12.7544	0.337002	1.02899
12.8988	12.7549	0.340739	1.03133
