# 1304     AichiSR QXAFS
# Start     : 8.9544
# End       : 9.0544
# Dir       : Backward
# Points    : 300
# ScanTime  : 1.01549
# Date      : 13.04.23 22:30
# Ring Cur. : 25.7[mA]
12.7557	12.6118	0.296544	0.225934
12.7562	12.6123	0.297593	0.227299
12.7566	12.6127	0.300538	0.230011
12.7571	12.6132	0.299698	0.232032
12.7576	12.6137	0.297777	0.230905
12.7581	12.6141	0.297857	0.229899
12.7585	12.6146	0.302815	0.232868
12.759	12.6151	0.300289	0.233202
12.7595	12.6156	0.300141	0.234988
12.7599	12.616	0.301121	0.236359
12.7604	12.6165	0.298984	0.232244
12.7609	12.617	0.300818	0.232051
12.7614	12.6175	0.299444	0.233316
12.7618	12.618	0.300641	0.235644
12.7623	12.6184	0.297053	0.232319
12.7628	12.6189	0.299032	0.232846
12.7632	12.6193	0.302153	0.234924
12.7637	12.6198	0.300601	0.23369
12.7642	12.6203	0.300247	0.234977
12.7647	12.6208	0.30128	0.237178
12.7651	12.6213	0.300655	0.234
12.7656	12.6217	0.299938	0.233335
12.7661	12.6222	0.301813	0.236763
12.7666	12.6227	0.302117	0.237917
12.767	12.6231	0.300053	0.236696
12.7675	12.6236	0.299831	0.23543
12.768	12.6241	0.301523	0.237514
12.7684	12.6245	0.30092	0.237866
12.7689	12.625	0.300633	0.239059
12.7694	12.6255	0.302153	0.241522
12.7699	12.626	0.299516	0.238046
12.7703	12.6265	0.300474	0.24007
12.7708	12.6269	0.300683	0.241454
12.7713	12.6274	0.302527	0.24317
12.7717	12.6279	0.299901	0.241776
12.7722	12.6284	0.300771	0.240054
12.7727	12.6288	0.303153	0.242083
12.7732	12.6293	0.301981	0.242462
12.7736	12.6298	0.302507	0.243167
12.7741	12.6302	0.300711	0.242953
12.7746	12.6307	0.300431	0.241253
12.7751	12.6312	0.302376	0.24048
12.7755	12.6317	0.301975	0.242052
12.776	12.6321	0.302212	0.242797
12.7765	12.6326	0.30262	0.242536
12.7769	12.6331	0.300473	0.239647
12.7774	12.6335	0.303288	0.241253
12.7779	12.634	0.302825	0.24174
12.7784	12.6345	0.301699	0.243385
12.7788	12.6349	0.303426	0.24357
12.7793	12.6354	0.302773	0.243121
12.7798	12.6359	0.302793	0.242247
12.7802	12.6364	0.303645	0.244659
12.7807	12.6368	0.303147	0.246663
12.7812	12.6373	0.300457	0.244231
12.7817	12.6378	0.301837	0.244544
12.7821	12.6383	0.303711	0.244166
12.7826	12.6387	0.303189	0.246304
12.7831	12.6392	0.301874	0.246387
12.7836	12.6396	0.304723	0.249457
12.784	12.6401	0.303976	0.24796
12.7845	12.6406	0.304289	0.247994
12.785	12.6411	0.305314	0.248949
12.7854	12.6415	0.30415	0.250105
12.7859	12.642	0.303694	0.248792
12.7864	12.6425	0.302841	0.247675
12.7869	12.6429	0.305279	0.248718
12.7873	12.6434	0.302841	0.247766
12.7878	12.6439	0.301469	0.247243
12.7883	12.6443	0.303925	0.246975
12.7887	12.6448	0.30364	0.24572
12.7892	12.6453	0.301378	0.242976
12.7897	12.6458	0.302942	0.244589
12.7902	12.6463	0.30308	0.24656
12.7906	12.6467	0.301171	0.242682
12.7911	12.6472	0.300613	0.239528
12.7916	12.6477	0.306212	0.241295
12.7921	12.6482	0.304346	0.239749
12.7925	12.6486	0.303963	0.238583
12.793	12.6491	0.305891	0.237562
12.7935	12.6496	0.305241	0.234816
12.7939	12.65	0.306024	0.231269
12.7944	12.6505	0.306256	0.232115
12.7949	12.651	0.305937	0.23102
12.7954	12.6515	0.304478	0.227914
12.7958	12.652	0.305261	0.224419
12.7963	12.6524	0.307675	0.224073
12.7968	12.6529	0.306525	0.222963
12.7972	12.6533	0.306166	0.221097
12.7977	12.6538	0.306087	0.219543
12.7982	12.6543	0.307096	0.217406
12.7987	12.6548	0.30891	0.216279
12.7991	12.6553	0.307677	0.215032
12.7996	12.6557	0.307676	0.215657
12.8001	12.6562	0.303776	0.212161
12.8006	12.6567	0.306496	0.211285
12.801	12.6572	0.309129	0.212382
12.8015	12.6576	0.306536	0.211784
12.802	12.6581	0.304499	0.211344
12.8024	12.6586	0.305688	0.212021
12.8029	12.6591	0.307384	0.211763
12.8034	12.6595	0.306865	0.212168
12.8039	12.66	0.307108	0.215033
12.8043	12.6604	0.306852	0.216801
12.8048	12.6609	0.305621	0.215979
12.8053	12.6614	0.307057	0.217245
12.8057	12.6619	0.309671	0.220491
12.8062	12.6623	0.307312	0.221534
12.8067	12.6628	0.306263	0.224408
12.8072	12.6633	0.308156	0.224783
12.8076	12.6637	0.306705	0.224246
12.8081	12.6642	0.310851	0.227464
12.8086	12.6647	0.309207	0.231061
12.8091	12.6651	0.306781	0.231519
12.8095	12.6656	0.306522	0.230667
12.81	12.6661	0.308651	0.23335
12.8105	12.6666	0.310536	0.236118
12.8109	12.6671	0.307672	0.23762
12.8114	12.6675	0.307785	0.240636
12.8119	12.668	0.309353	0.242899
12.8124	12.6685	0.308884	0.24295
12.8128	12.6689	0.311616	0.247585
12.8133	12.6694	0.31346	0.251813
12.8138	12.6699	0.309342	0.252239
12.8142	12.6703	0.308646	0.25177
12.8147	12.6708	0.308621	0.252403
12.8152	12.6713	0.310308	0.254294
12.8157	12.6717	0.30803	0.256313
12.8161	12.6722	0.308525	0.259205
12.8166	12.6727	0.308768	0.260415
12.8171	12.6731	0.307827	0.259667
12.8176	12.6736	0.309003	0.262494
12.818	12.6741	0.309746	0.264936
12.8185	12.6746	0.310896	0.266377
12.819	12.675	0.307621	0.263798
12.8194	12.6755	0.310053	0.265007
12.8199	12.676	0.312948	0.267687
12.8204	12.6765	0.309581	0.268842
12.8209	12.677	0.306143	0.266816
12.8213	12.6775	0.309029	0.267395
12.8218	12.6779	0.309456	0.267057
12.8223	12.6784	0.308125	0.26672
12.8227	12.6789	0.310909	0.268559
12.8232	12.6793	0.310394	0.269603
12.8237	12.6798	0.309106	0.265237
12.8242	12.6803	0.311165	0.263474
12.8246	12.6807	0.312529	0.263592
12.8251	12.6812	0.312021	0.261751
12.8256	12.6817	0.311654	0.259955
12.8261	12.6822	0.311599	0.256905
12.8265	12.6826	0.312007	0.251877
12.827	12.6831	0.311465	0.251131
12.8275	12.6836	0.313439	0.250925
12.8279	12.684	0.310169	0.248631
12.8284	12.6845	0.309981	0.244075
12.8289	12.685	0.311133	0.240481
12.8294	12.6855	0.314141	0.239412
12.8298	12.686	0.312416	0.237591
12.8303	12.6864	0.31234	0.234993
12.8308	12.6869	0.31264	0.230845
12.8312	12.6874	0.313104	0.226116
12.8317	12.6879	0.315005	0.224218
12.8322	12.6883	0.315633	0.223127
12.8327	12.6888	0.314224	0.221136
12.8331	12.6893	0.315506	0.21753
12.8336	12.6897	0.313728	0.216209
12.8341	12.6902	0.315312	0.217537
12.8346	12.6907	0.315337	0.219049
12.835	12.6911	0.315266	0.221715
12.8355	12.6916	0.316204	0.223576
12.836	12.6921	0.315524	0.226926
12.8364	12.6925	0.316098	0.230705
12.8369	12.693	0.316371	0.237434
12.8374	12.6935	0.315659	0.241628
12.8379	12.6939	0.313607	0.243546
12.8383	12.6944	0.316201	0.248071
12.8388	12.6949	0.317788	0.25277
12.8393	12.6954	0.315926	0.254995
12.8397	12.6958	0.315286	0.256838
12.8402	12.6963	0.315688	0.25663
12.8407	12.6968	0.31705	0.257476
12.8412	12.6973	0.315481	0.25427
12.8416	12.6977	0.315096	0.255224
12.8421	12.6982	0.316153	0.253929
12.8426	12.6987	0.31325	0.247206
12.8431	12.6991	0.315452	0.246313
12.8435	12.6996	0.316656	0.244346
12.844	12.7001	0.316503	0.240183
12.8445	12.7005	0.314783	0.237116
12.8449	12.701	0.316991	0.232103
12.8454	12.7015	0.318952	0.229377
12.8459	12.702	0.315128	0.223918
12.8464	12.7024	0.318033	0.227496
12.8468	12.7029	0.317376	0.223151
12.8473	12.7034	0.314435	0.222292
12.8478	12.7038	0.318661	0.224221
12.8482	12.7043	0.317474	0.228027
12.8487	12.7048	0.317831	0.232128
12.8492	12.7053	0.315889	0.237534
12.8497	12.7058	0.318804	0.245123
12.8501	12.7062	0.318785	0.251852
12.8506	12.7067	0.317384	0.261007
12.8511	12.7072	0.318646	0.274532
12.8516	12.7077	0.319564	0.286524
12.852	12.7082	0.317831	0.294789
12.8525	12.7086	0.320354	0.308877
12.853	12.7091	0.321481	0.324075
12.8534	12.7096	0.319552	0.33917
12.8539	12.71	0.319504	0.351971
12.8544	12.7105	0.319079	0.364163
12.8549	12.711	0.322757	0.377306
12.8553	12.7115	0.319206	0.389675
12.8558	12.7119	0.320867	0.402044
12.8563	12.7124	0.319978	0.413344
12.8567	12.7128	0.318944	0.420557
12.8572	12.7133	0.319533	0.429239
12.8577	12.7138	0.31988	0.437204
12.8582	12.7143	0.320153	0.448616
12.8586	12.7147	0.319193	0.457921
12.8591	12.7152	0.320299	0.463771
12.8596	12.7157	0.323148	0.472624
12.8601	12.7162	0.320321	0.483921
12.8605	12.7166	0.322317	0.494046
12.861	12.7171	0.320707	0.498347
12.8615	12.7176	0.318529	0.503797
12.8619	12.7181	0.321375	0.509212
12.8624	12.7185	0.321005	0.510731
12.8629	12.719	0.318513	0.506894
12.8634	12.7195	0.319137	0.505301
12.8638	12.7199	0.318807	0.499352
12.8643	12.7204	0.321153	0.49568
12.8648	12.7209	0.319238	0.494182
12.8652	12.7214	0.320345	0.500437
12.8657	12.7218	0.319977	0.505348
12.8662	12.7223	0.317852	0.514254
12.8667	12.7227	0.320757	0.537076
12.8671	12.7232	0.320393	0.57445
12.8676	12.7237	0.317437	0.612206
12.8681	12.7241	0.315831	0.660653
12.8686	12.7246	0.314566	0.709343
12.869	12.7251	0.316057	0.757679
12.8695	12.7256	0.314927	0.801186
12.87	12.726	0.318017	0.840098
12.8704	12.7265	0.316938	0.866254
12.8709	12.727	0.316482	0.878788
12.8714	12.7275	0.318276	0.896717
12.8719	12.728	0.31979	0.913245
12.8723	12.7284	0.319368	0.920234
12.8728	12.7289	0.319656	0.927322
12.8733	12.7294	0.319464	0.934527
12.8737	12.7298	0.32196	0.938469
12.8742	12.7303	0.319042	0.939945
12.8747	12.7308	0.320146	0.947178
12.8752	12.7313	0.320316	0.951414
12.8756	12.7317	0.318533	0.94756
12.8761	12.7322	0.319677	0.947924
12.8766	12.7327	0.320853	0.958636
12.8771	12.7331	0.319781	0.958764
12.8775	12.7336	0.319388	0.958838
12.878	12.7341	0.320745	0.959348
12.8785	12.7346	0.322304	0.962726
12.8789	12.735	0.319554	0.961243
12.8794	12.7355	0.32146	0.968748
12.8799	12.736	0.32171	0.974855
12.8804	12.7365	0.320829	0.966638
12.8808	12.737	0.324169	0.968057
12.8813	12.7374	0.32106	0.972458
12.8818	12.7379	0.322974	0.973571
12.8822	12.7384	0.320607	0.972224
12.8827	12.7389	0.321714	0.971564
12.8832	12.7393	0.322535	0.971532
12.8837	12.7398	0.32061	0.970504
12.8841	12.7402	0.32243	0.977759
12.8846	12.7407	0.322883	0.976778
12.8851	12.7412	0.319704	0.974025
12.8856	12.7417	0.324198	0.975403
12.886	12.7421	0.32256	0.981061
12.8865	12.7426	0.32214	0.981053
12.887	12.7431	0.322121	0.984018
12.8874	12.7435	0.322453	0.982101
12.8879	12.744	0.324428	0.980976
12.8884	12.7445	0.322847	0.981846
12.8889	12.745	0.322562	0.986842
12.8893	12.7454	0.322561	0.985281
12.8898	12.7459	0.322692	0.985003
12.8903	12.7464	0.325217	0.986274
12.8907	12.7469	0.323826	0.986314
12.8912	12.7474	0.323884	0.989329
12.8917	12.7478	0.323974	0.986857
12.8922	12.7483	0.32504	0.989667
12.8926	12.7488	0.325597	0.989619
12.8931	12.7492	0.323777	0.988034
12.8936	12.7497	0.323673	0.991922
12.8941	12.7501	0.323803	0.989472
12.8945	12.7506	0.324137	0.983697
12.895	12.7511	0.325578	0.988945
12.8955	12.7516	0.32351	0.988125
12.8959	12.752	0.32269	0.987065
12.8964	12.7525	0.323291	0.986751
12.8969	12.753	0.325051	0.994051
12.8974	12.7534	0.324696	0.990409
12.8978	12.7539	0.323008	0.986987
12.8983	12.7544	0.325424	0.993699
12.8988	12.7548	0.32422	0.991744
