# 1304     AichiSR QXAFS
# Start     : 8.9544
# End       : 9.0544
# Dir       : Forward
# Points    : 300
# ScanTime  : 1.01549
# Date      : 13.04.23 22:31
# Ring Cur. : 25.6[mA]
12.7557	12.7558	0.405534	1.23842
12.7562	12.7553	0.409629	1.23916
12.7566	12.7548	0.407322	1.2426
12.7571	12.7543	0.406955	1.24088
12.7576	12.7539	0.403895	1.23792
12.7581	12.7534	0.405694	1.23589
12.7585	12.7529	0.407169	1.23527
12.759	12.7525	0.406976	1.23903
12.7595	12.752	0.405777	1.23903
12.7599	12.7516	0.404662	1.23811
12.7604	12.7511	0.406718	1.2375
12.7609	12.7506	0.408018	1.23756
12.7614	12.7501	0.405573	1.23802
12.7618	12.7497	0.404864	1.24222
12.7623	12.7492	0.405053	1.23491
12.7628	12.7487	0.406583	1.23419
12.7632	12.7483	0.406191	1.23468
12.7637	12.7478	0.406288	1.23627
12.7642	12.7473	0.404821	1.23636
12.7647	12.7469	0.404537	1.23338
12.7651	12.7464	0.405797	1.23001
12.7656	12.7459	0.407049	1.2305
12.7661	12.7454	0.405545	1.23534
12.7666	12.745	0.40533	1.23828
12.767	12.7445	0.405748	1.23115
12.7675	12.744	0.40507	1.23142
12.768	12.7435	0.40542	1.23009
12.7684	12.7431	0.40588	1.23058
12.7689	12.7426	0.404114	1.23091
12.7694	12.7421	0.404004	1.2299
12.7699	12.7417	0.405416	1.22804
12.7703	12.7412	0.405593	1.22488
12.7708	12.7407	0.405357	1.22609
12.7713	12.7402	0.404076	1.23007
12.7717	12.7398	0.403281	1.22283
12.7722	12.7393	0.403712	1.22058
12.7727	12.7388	0.404717	1.22474
12.7732	12.7384	0.403943	1.22354
12.7736	12.7379	0.402848	1.22455
12.7741	12.7374	0.404607	1.2224
12.7746	12.7369	0.403461	1.21916
12.7751	12.7365	0.405554	1.2159
12.7755	12.736	0.404471	1.21822
12.776	12.7355	0.403537	1.21844
12.7765	12.735	0.403839	1.21407
12.7769	12.7345	0.402407	1.21125
12.7774	12.7341	0.406017	1.20993
12.7779	12.7336	0.404115	1.21006
12.7784	12.7331	0.402227	1.20761
12.7788	12.7327	0.403368	1.2032
12.7793	12.7322	0.402331	1.19989
12.7798	12.7317	0.4036	1.19886
12.7802	12.7312	0.402496	1.19727
12.7807	12.7308	0.400929	1.19818
12.7812	12.7303	0.402485	1.18978
12.7817	12.7298	0.402425	1.18445
12.7821	12.7294	0.403052	1.18111
12.7826	12.7289	0.402503	1.17837
12.7831	12.7284	0.40077	1.17514
12.7836	12.728	0.402221	1.16205
12.784	12.7275	0.401336	1.1499
12.7845	12.727	0.402484	1.13707
12.785	12.7265	0.401452	1.1231
12.7854	12.7261	0.398869	1.10669
12.7859	12.7256	0.397493	1.07228
12.7864	12.7251	0.396188	1.03682
12.7869	12.7246	0.396107	0.992318
12.7873	12.7241	0.396071	0.940872
12.7878	12.7237	0.396021	0.881015
12.7883	12.7232	0.398746	0.81596
12.7887	12.7227	0.400377	0.755889
12.7892	12.7223	0.401259	0.704041
12.7897	12.7218	0.400627	0.669775
12.7902	12.7214	0.400193	0.645516
12.7906	12.7209	0.399752	0.627053
12.7911	12.7204	0.401107	0.619725
12.7916	12.7199	0.401163	0.618949
12.7921	12.7195	0.401785	0.624447
12.7925	12.719	0.398486	0.629487
12.793	12.7185	0.400065	0.633384
12.7935	12.7181	0.400921	0.634079
12.7939	12.7176	0.401657	0.636773
12.7944	12.7171	0.401223	0.636441
12.7949	12.7166	0.399636	0.630554
12.7954	12.7162	0.40027	0.618459
12.7958	12.7157	0.401407	0.607552
12.7963	12.7152	0.39992	0.597232
12.7968	12.7147	0.399889	0.586821
12.7972	12.7143	0.399501	0.577165
12.7977	12.7138	0.400434	0.563183
12.7982	12.7133	0.401859	0.55395
12.7987	12.7128	0.39901	0.544472
12.7991	12.7124	0.400118	0.534425
12.7996	12.7119	0.399378	0.524869
12.8001	12.7114	0.398144	0.5067
12.8006	12.711	0.400337	0.493019
12.801	12.7105	0.39991	0.480354
12.8015	12.71	0.399185	0.466307
12.802	12.7095	0.398594	0.44897
12.8024	12.7091	0.398308	0.431499
12.8029	12.7086	0.400664	0.414083
12.8034	12.7082	0.399226	0.397984
12.8039	12.7077	0.400329	0.373533
12.8043	12.7072	0.400273	0.377065
12.8048	12.7067	0.398564	0.349587
12.8053	12.7062	0.398718	0.335669
12.8057	12.7058	0.399505	0.324892
12.8062	12.7053	0.399127	0.314003
12.8067	12.7048	0.395659	0.303159
12.8072	12.7043	0.398588	0.295534
12.8076	12.7038	0.399657	0.287364
12.8081	12.7034	0.397324	0.283006
12.8086	12.7029	0.398535	0.282442
12.8091	12.7024	0.39783	0.280918
12.8095	12.702	0.397554	0.278352
12.81	12.7015	0.397197	0.279954
12.8105	12.701	0.397696	0.284482
12.8109	12.7005	0.39865	0.290283
12.8114	12.7001	0.397297	0.293181
12.8119	12.6996	0.398659	0.296236
12.8124	12.6991	0.398239	0.30096
12.8128	12.6987	0.397953	0.305611
12.8133	12.6982	0.397556	0.310981
12.8138	12.6977	0.396156	0.315608
12.8142	12.6973	0.395278	0.317057
12.8147	12.6968	0.39703	0.318359
12.8152	12.6963	0.396749	0.321093
12.8157	12.6958	0.396164	0.322648
12.8161	12.6954	0.395204	0.322763
12.8166	12.6949	0.394943	0.319455
12.8171	12.6944	0.397917	0.317589
12.8176	12.6939	0.395912	0.31537
12.818	12.6935	0.396763	0.312541
12.8185	12.693	0.394502	0.305832
12.819	12.6925	0.393919	0.299697
12.8194	12.6921	0.395786	0.29436
12.8199	12.6916	0.395716	0.289013
12.8204	12.6911	0.395781	0.284707
12.8209	12.6907	0.394236	0.27793
12.8213	12.6902	0.393668	0.273428
12.8218	12.6897	0.395453	0.271427
12.8223	12.6893	0.393999	0.271223
12.8227	12.6888	0.394195	0.272219
12.8232	12.6883	0.394465	0.273743
12.8237	12.6879	0.393437	0.274394
12.8242	12.6874	0.393977	0.27703
12.8246	12.6869	0.393943	0.283048
12.8251	12.6864	0.391861	0.288647
12.8256	12.686	0.392542	0.290098
12.8261	12.6855	0.390761	0.293507
12.8265	12.685	0.392641	0.296681
12.827	12.6845	0.392333	0.301301
12.8275	12.684	0.390735	0.305209
12.8279	12.6836	0.390665	0.308118
12.8284	12.6831	0.390151	0.309526
12.8289	12.6826	0.394131	0.314644
12.8294	12.6822	0.39634	0.320705
12.8298	12.6817	0.393895	0.322354
12.8303	12.6812	0.392234	0.323256
12.8308	12.6807	0.392764	0.325091
12.8312	12.6803	0.393552	0.328596
12.8317	12.6798	0.392032	0.331747
12.8322	12.6793	0.393443	0.335665
12.8327	12.6789	0.393329	0.337073
12.8331	12.6784	0.39315	0.338358
12.8336	12.6779	0.393886	0.337655
12.8341	12.6774	0.391962	0.340287
12.8346	12.677	0.392204	0.340768
12.835	12.6765	0.392869	0.34006
12.8355	12.676	0.392788	0.337499
12.836	12.6755	0.395373	0.3367
12.8364	12.675	0.393601	0.336703
12.8369	12.6746	0.391669	0.337608
12.8374	12.6741	0.392794	0.335416
12.8379	12.6736	0.392027	0.333664
12.8383	12.6731	0.393703	0.333539
12.8388	12.6727	0.392946	0.33215
12.8393	12.6722	0.393893	0.331182
12.8397	12.6718	0.392873	0.329753
12.8402	12.6713	0.392733	0.32636
12.8407	12.6708	0.394012	0.326215
12.8412	12.6703	0.394722	0.324203
12.8416	12.6699	0.393009	0.322457
12.8421	12.6694	0.394172	0.32021
12.8426	12.6689	0.393246	0.316276
12.8431	12.6685	0.394795	0.313949
12.8435	12.668	0.394638	0.313537
12.844	12.6675	0.393744	0.313361
12.8445	12.6671	0.393814	0.306765
12.8449	12.6666	0.393788	0.304714
12.8454	12.6661	0.395923	0.303217
12.8459	12.6656	0.393887	0.301371
12.8464	12.6652	0.393284	0.300082
12.8468	12.6647	0.394522	0.297436
12.8473	12.6642	0.393899	0.293494
12.8478	12.6637	0.394632	0.290896
12.8482	12.6633	0.395982	0.289723
12.8487	12.6628	0.394592	0.290041
12.8492	12.6623	0.395308	0.285688
12.8497	12.6619	0.392804	0.282886
12.8501	12.6614	0.39445	0.282193
12.8506	12.6609	0.394011	0.28072
12.8511	12.6605	0.393593	0.279273
12.8516	12.66	0.395146	0.278002
12.852	12.6595	0.392965	0.273147
12.8525	12.6591	0.394825	0.272817
12.853	12.6586	0.395203	0.275372
12.8534	12.6581	0.394267	0.273469
12.8539	12.6576	0.39469	0.271386
12.8544	12.6572	0.393427	0.271236
12.8549	12.6567	0.394212	0.271292
12.8553	12.6562	0.395265	0.273243
12.8558	12.6557	0.393191	0.273481
12.8563	12.6553	0.395914	0.274113
12.8567	12.6548	0.393934	0.274208
12.8572	12.6543	0.395799	0.276313
12.8577	12.6538	0.395614	0.278658
12.8582	12.6534	0.39471	0.282154
12.8586	12.6529	0.395044	0.282627
12.8591	12.6524	0.395097	0.28406
12.8596	12.652	0.396681	0.286622
12.8601	12.6515	0.395998	0.290211
12.8605	12.651	0.395103	0.293535
12.861	12.6505	0.396767	0.294948
12.8615	12.65	0.396078	0.29579
12.8619	12.6496	0.39598	0.299568
12.8624	12.6491	0.398049	0.303561
12.8629	12.6486	0.394074	0.305739
12.8634	12.6482	0.395131	0.306809
12.8638	12.6477	0.395617	0.30742
12.8643	12.6472	0.395606	0.30885
12.8648	12.6467	0.395161	0.312285
12.8652	12.6463	0.390968	0.312564
12.8657	12.6458	0.392018	0.312858
12.8662	12.6453	0.39253	0.312011
12.8667	12.6448	0.392534	0.314314
12.8671	12.6443	0.393232	0.317671
12.8676	12.6439	0.392311	0.319484
12.8681	12.6434	0.393112	0.318967
12.8686	12.6429	0.394368	0.319352
12.869	12.6425	0.395516	0.320965
12.8695	12.642	0.396156	0.323329
12.87	12.6416	0.39287	0.323644
12.8704	12.6411	0.395628	0.321826
12.8709	12.6406	0.395364	0.320371
12.8714	12.6401	0.396301	0.322953
12.8719	12.6397	0.39697	0.324674
12.8723	12.6392	0.395275	0.322284
12.8728	12.6387	0.395787	0.322222
12.8733	12.6383	0.395919	0.319004
12.8737	12.6378	0.396286	0.318876
12.8742	12.6373	0.395905	0.320301
12.8747	12.6369	0.394346	0.318038
12.8752	12.6364	0.394576	0.317177
12.8756	12.6359	0.395218	0.316704
12.8761	12.6354	0.395086	0.315005
12.8766	12.6349	0.39628	0.316419
12.8771	12.6345	0.395044	0.317523
12.8775	12.634	0.394878	0.315457
12.878	12.6335	0.397429	0.313776
12.8785	12.6331	0.396303	0.314894
12.8789	12.6326	0.395576	0.315953
12.8794	12.6321	0.393423	0.314887
12.8799	12.6317	0.39489	0.314701
12.8804	12.6312	0.396291	0.313544
12.8808	12.6307	0.396253	0.314241
12.8813	12.6302	0.395176	0.315908
12.8818	12.6298	0.393567	0.315733
12.8822	12.6293	0.393734	0.316639
12.8827	12.6288	0.394639	0.314515
12.8832	12.6284	0.396176	0.315398
12.8837	12.6279	0.39601	0.317289
12.8841	12.6274	0.394176	0.315611
12.8846	12.6269	0.394525	0.315441
12.8851	12.6265	0.395355	0.314352
12.8856	12.626	0.395667	0.314986
12.886	12.6255	0.395807	0.316642
12.8865	12.625	0.394161	0.315092
12.887	12.6245	0.394485	0.311907
12.8874	12.6241	0.395215	0.31166
12.8879	12.6236	0.395119	0.311102
12.8884	12.6231	0.395283	0.311873
12.8889	12.6227	0.394512	0.31009
12.8893	12.6222	0.39462	0.308518
12.8898	12.6217	0.394197	0.306914
12.8903	12.6212	0.394813	0.307176
12.8907	12.6208	0.395182	0.308944
12.8912	12.6203	0.394115	0.307756
12.8917	12.6198	0.39203	0.305593
12.8922	12.6193	0.394761	0.305098
12.8926	12.6189	0.394808	0.307118
12.8931	12.6184	0.394934	0.307072
12.8936	12.6179	0.393459	0.306394
12.8941	12.6175	0.394355	0.305959
12.8945	12.617	0.395338	0.304503
12.895	12.6165	0.393839	0.305257
12.8955	12.616	0.394243	0.307338
12.8959	12.6156	0.391658	0.305767
12.8964	12.6151	0.393507	0.303692
12.8969	12.6146	0.392795	0.304466
12.8974	12.6141	0.393573	0.304866
12.8978	12.6137	0.393516	0.305076
12.8983	12.6132	0.392243	0.304554
12.8988	12.6127	0.39367	0.301926
