# 1304     AichiSR QXAFS
# Start     : 8.9544
# End       : 9.0544
# Dir       : Backward
# Points    : 300
# ScanTime  : 1.01549
# Date      : 13.04.23 22:26
# Ring Cur. : 25.5[mA]
12.7557	12.6118	0.3007	0.229656
12.7562	12.6122	0.297739	0.228067
12.7566	12.6127	0.30229	0.229632
12.7571	12.6132	0.302583	0.233356
12.7576	12.6136	0.301034	0.233651
12.7581	12.6141	0.30062	0.23371
12.7585	12.6146	0.302395	0.233489
12.759	12.615	0.30304	0.233879
12.7595	12.6155	0.303082	0.236443
12.7599	12.616	0.304753	0.237706
12.7604	12.6165	0.302654	0.236155
12.7609	12.6169	0.300918	0.233275
12.7614	12.6174	0.303326	0.234914
12.7618	12.6179	0.305741	0.238463
12.7623	12.6184	0.301664	0.237695
12.7628	12.6188	0.302234	0.236292
12.7632	12.6193	0.301341	0.234462
12.7637	12.6198	0.303702	0.23536
12.7642	12.6202	0.304944	0.237239
12.7647	12.6207	0.30486	0.238952
12.7651	12.6212	0.303716	0.237851
12.7656	12.6217	0.300545	0.235546
12.7661	12.6222	0.305399	0.238026
12.7666	12.6226	0.303679	0.23915
12.767	12.6231	0.304269	0.241509
12.7675	12.6235	0.304841	0.240296
12.768	12.624	0.30339	0.239232
12.7684	12.6245	0.304323	0.239558
12.7689	12.625	0.304749	0.241396
12.7694	12.6255	0.307569	0.245638
12.7699	12.6259	0.304679	0.242807
12.7703	12.6264	0.302657	0.24098
12.7708	12.6269	0.305031	0.242631
12.7713	12.6274	0.307901	0.247142
12.7717	12.6279	0.305659	0.244707
12.7722	12.6283	0.305159	0.245941
12.7727	12.6288	0.305605	0.243738
12.7732	12.6293	0.307929	0.246128
12.7736	12.6297	0.30578	0.245884
12.7741	12.6302	0.305191	0.246076
12.7746	12.6307	0.307376	0.245074
12.7751	12.6311	0.30414	0.242433
12.7755	12.6316	0.306127	0.244095
12.776	12.6321	0.306684	0.245594
12.7765	12.6325	0.306943	0.247215
12.7769	12.633	0.3072	0.244901
12.7774	12.6335	0.306325	0.243193
12.7779	12.6339	0.307997	0.244162
12.7784	12.6344	0.306901	0.246462
12.7788	12.6349	0.309794	0.248962
12.7793	12.6354	0.306974	0.246148
12.7798	12.6359	0.306153	0.243915
12.7802	12.6363	0.309714	0.24773
12.7807	12.6368	0.30808	0.249298
12.7812	12.6373	0.306095	0.249266
12.7817	12.6378	0.308182	0.249716
12.7821	12.6382	0.308451	0.249036
12.7826	12.6387	0.308551	0.249949
12.7831	12.6391	0.305836	0.249531
12.7836	12.6396	0.309026	0.253558
12.784	12.6401	0.30921	0.249975
12.7845	12.6405	0.307467	0.249433
12.785	12.641	0.308852	0.25296
12.7854	12.6415	0.310811	0.253042
12.7859	12.642	0.307933	0.252691
12.7864	12.6424	0.308988	0.252812
12.7869	12.6429	0.310817	0.252772
12.7873	12.6433	0.307982	0.250232
12.7878	12.6438	0.306936	0.251506
12.7883	12.6443	0.308005	0.25264
12.7887	12.6448	0.307208	0.248498
12.7892	12.6452	0.305603	0.245284
12.7897	12.6457	0.307631	0.246732
12.7902	12.6462	0.305972	0.247422
12.7906	12.6467	0.305316	0.245322
12.7911	12.6472	0.307623	0.244636
12.7916	12.6477	0.309982	0.24269
12.7921	12.6481	0.308217	0.242261
12.7925	12.6486	0.309711	0.24306
12.793	12.6491	0.311501	0.242903
12.7935	12.6495	0.311931	0.238533
12.7939	12.65	0.309515	0.235138
12.7944	12.6505	0.311358	0.236065
12.7949	12.651	0.311373	0.234788
12.7954	12.6514	0.310562	0.233317
12.7958	12.6519	0.311106	0.229492
12.7963	12.6524	0.310653	0.227838
12.7968	12.6528	0.311323	0.225048
12.7972	12.6533	0.312554	0.226509
12.7977	12.6538	0.311806	0.224582
12.7982	12.6543	0.31261	0.222062
12.7987	12.6547	0.313009	0.218993
12.7991	12.6552	0.313537	0.218599
12.7996	12.6557	0.31361	0.218962
12.8001	12.6562	0.311634	0.216544
12.8006	12.6566	0.31293	0.215704
12.801	12.6571	0.31385	0.214912
12.8015	12.6576	0.312158	0.215104
12.802	12.6581	0.311086	0.216058
12.8024	12.6585	0.312396	0.217368
12.8029	12.659	0.312986	0.217361
12.8034	12.6595	0.313014	0.216825
12.8039	12.6599	0.312172	0.216427
12.8043	12.6604	0.314198	0.220894
12.8048	12.6609	0.312484	0.22103
12.8053	12.6614	0.312574	0.221927
12.8057	12.6618	0.31495	0.223224
12.8062	12.6623	0.314316	0.2257
12.8067	12.6628	0.315657	0.229161
12.8072	12.6632	0.31658	0.230849
12.8076	12.6637	0.313618	0.229176
12.8081	12.6642	0.315554	0.231733
12.8086	12.6646	0.314736	0.234554
12.8091	12.6651	0.314998	0.236737
12.8095	12.6656	0.311273	0.236809
12.81	12.6661	0.313899	0.238277
12.8105	12.6665	0.313906	0.240665
12.8109	12.667	0.313201	0.240723
12.8114	12.6675	0.315402	0.245688
12.8119	12.668	0.315422	0.248652
12.8124	12.6684	0.315199	0.248516
12.8128	12.6689	0.315351	0.249363
12.8133	12.6694	0.315742	0.25275
12.8138	12.6698	0.315733	0.256296
12.8142	12.6703	0.313962	0.258222
12.8147	12.6708	0.313275	0.256997
12.8152	12.6712	0.316331	0.259494
12.8157	12.6717	0.315992	0.261444
12.8161	12.6722	0.315596	0.265031
12.8166	12.6726	0.315601	0.266221
12.8171	12.6731	0.314552	0.265844
12.8176	12.6736	0.315243	0.26614
12.818	12.674	0.314745	0.268427
12.8185	12.6745	0.316969	0.272295
12.819	12.675	0.313771	0.272069
12.8194	12.6755	0.315195	0.27022
12.8199	12.676	0.317413	0.270378
12.8204	12.6764	0.314883	0.271268
12.8209	12.6769	0.314865	0.272788
12.8213	12.6774	0.31672	0.27638
12.8218	12.6779	0.315873	0.273269
12.8223	12.6784	0.315794	0.271893
12.8227	12.6788	0.316791	0.271631
12.8232	12.6793	0.318418	0.27279
12.8237	12.6798	0.316567	0.271096
12.8242	12.6802	0.314486	0.267328
12.8246	12.6807	0.317803	0.266482
12.8251	12.6812	0.314736	0.262992
12.8256	12.6817	0.314165	0.261648
12.8261	12.6821	0.317716	0.261823
12.8265	12.6826	0.313537	0.25712
12.827	12.683	0.31524	0.253618
12.8275	12.6835	0.316148	0.253188
12.8279	12.684	0.316553	0.251302
12.8284	12.6845	0.314219	0.248458
12.8289	12.6849	0.315499	0.244994
12.8294	12.6854	0.319272	0.241998
12.8298	12.6859	0.315371	0.23919
12.8303	12.6864	0.31495	0.237905
12.8308	12.6869	0.318547	0.236253
12.8312	12.6874	0.315577	0.228571
12.8317	12.6878	0.317387	0.224763
12.8322	12.6883	0.317544	0.223872
12.8327	12.6888	0.31775	0.222402
12.8331	12.6892	0.315827	0.220994
12.8336	12.6897	0.316562	0.217268
12.8341	12.6901	0.317259	0.218772
12.8346	12.6906	0.315995	0.21943
12.835	12.6911	0.316292	0.222321
12.8355	12.6916	0.318988	0.226831
12.836	12.692	0.317613	0.228464
12.8364	12.6925	0.319044	0.232946
12.8369	12.693	0.317915	0.238364
12.8374	12.6934	0.317907	0.243132
12.8379	12.6939	0.31583	0.24691
12.8383	12.6944	0.317578	0.249596
12.8388	12.6948	0.318411	0.252262
12.8393	12.6953	0.313182	0.253572
12.8397	12.6958	0.315763	0.257034
12.8402	12.6963	0.316797	0.258426
12.8407	12.6968	0.316854	0.25595
12.8412	12.6972	0.316869	0.255634
12.8416	12.6977	0.317693	0.255011
12.8421	12.6982	0.317693	0.254521
12.8426	12.6986	0.316279	0.250123
12.8431	12.6991	0.31645	0.246853
12.8435	12.6995	0.319659	0.242318
12.844	12.7	0.315183	0.237176
12.8445	12.7005	0.313423	0.236328
12.8449	12.701	0.316222	0.233451
12.8454	12.7015	0.316399	0.227952
12.8459	12.7019	0.316703	0.223926
12.8464	12.7024	0.313279	0.22343
12.8468	12.7028	0.315457	0.224137
12.8473	12.7033	0.31555	0.223231
12.8478	12.7038	0.315749	0.223489
12.8482	12.7043	0.319652	0.227459
12.8487	12.7047	0.316698	0.230376
12.8492	12.7052	0.314811	0.237659
12.8497	12.7057	0.317869	0.246091
12.8501	12.7062	0.318174	0.252619
12.8506	12.7067	0.317412	0.260171
12.8511	12.7072	0.316555	0.271309
12.8516	12.7076	0.317516	0.283782
12.852	12.7081	0.315878	0.294205
12.8525	12.7086	0.31603	0.305748
12.853	12.709	0.318818	0.321396
12.8534	12.7095	0.315893	0.332011
12.8539	12.71	0.315674	0.347466
12.8544	12.7104	0.31595	0.361136
12.8549	12.7109	0.317183	0.374245
12.8553	12.7114	0.319258	0.386845
12.8558	12.7119	0.319102	0.398101
12.8563	12.7123	0.318012	0.409676
12.8567	12.7128	0.318001	0.419468
12.8572	12.7133	0.318517	0.4289
12.8577	12.7137	0.320499	0.438086
12.8582	12.7142	0.317213	0.441952
12.8586	12.7147	0.316374	0.45176
12.8591	12.7152	0.316938	0.460158
12.8596	12.7157	0.315794	0.465837
12.8601	12.7161	0.318828	0.477849
12.8605	12.7166	0.319693	0.489415
12.861	12.7171	0.317016	0.495232
12.8615	12.7176	0.316179	0.497728
12.8619	12.718	0.317489	0.505404
12.8624	12.7185	0.319236	0.506612
12.8629	12.719	0.317262	0.50359
12.8634	12.7194	0.314679	0.500224
12.8638	12.7199	0.31664	0.496151
12.8643	12.7204	0.316783	0.491952
12.8648	12.7208	0.316931	0.490881
12.8652	12.7213	0.315794	0.492158
12.8657	12.7218	0.314135	0.496831
12.8662	12.7222	0.314208	0.509408
12.8667	12.7227	0.315105	0.533782
12.8671	12.7232	0.315621	0.565693
12.8676	12.7236	0.311989	0.603107
12.8681	12.7241	0.312187	0.655257
12.8686	12.7246	0.313029	0.705603
12.869	12.725	0.312049	0.750297
12.8695	12.7255	0.313562	0.792835
12.87	12.726	0.313998	0.831096
12.8704	12.7265	0.314564	0.859136
12.8709	12.727	0.315224	0.877112
12.8714	12.7274	0.316173	0.891216
12.8719	12.7279	0.319104	0.907595
12.8723	12.7284	0.317558	0.91392
12.8728	12.7288	0.314746	0.914155
12.8733	12.7293	0.316105	0.921431
12.8737	12.7298	0.316628	0.929812
12.8742	12.7302	0.317605	0.931374
12.8747	12.7307	0.316512	0.936595
12.8752	12.7312	0.317652	0.94071
12.8756	12.7317	0.317533	0.941033
12.8761	12.7322	0.319182	0.95089
12.8766	12.7326	0.32173	0.95762
12.8771	12.7331	0.319775	0.957479
12.8775	12.7336	0.318187	0.955081
12.878	12.734	0.320481	0.961448
12.8785	12.7345	0.321525	0.960919
12.8789	12.735	0.320689	0.957212
12.8794	12.7355	0.322032	0.964365
12.8799	12.736	0.320634	0.966701
12.8804	12.7364	0.318665	0.960021
12.8808	12.7369	0.319849	0.964163
12.8813	12.7374	0.32044	0.969144
12.8818	12.7379	0.320387	0.966065
12.8822	12.7383	0.319995	0.9721
12.8827	12.7388	0.32368	0.975131
12.8832	12.7393	0.322223	0.974776
12.8837	12.7397	0.323455	0.974506
12.8841	12.7402	0.32339	0.981295
12.8846	12.7407	0.323562	0.980427
12.8851	12.7412	0.323075	0.976207
12.8856	12.7416	0.32438	0.984062
12.886	12.7421	0.32577	0.982439
12.8865	12.7426	0.322386	0.978485
12.887	12.743	0.321844	0.98302
12.8874	12.7435	0.323598	0.984781
12.8879	12.744	0.322388	0.978484
12.8884	12.7444	0.323741	0.983051
12.8889	12.7449	0.323809	0.985577
12.8893	12.7454	0.323296	0.985755
12.8898	12.7459	0.323381	0.983366
12.8903	12.7464	0.326863	0.9911
12.8907	12.7468	0.326469	0.993368
12.8912	12.7473	0.326159	0.99282
12.8917	12.7478	0.325399	0.994761
12.8922	12.7483	0.326904	0.992783
12.8926	12.7487	0.327242	0.992974
12.8931	12.7492	0.325935	0.990059
12.8936	12.7496	0.326842	0.994391
12.8941	12.7501	0.324767	0.991153
12.8945	12.7506	0.324045	0.99152
12.895	12.7511	0.32674	0.992519
12.8955	12.7515	0.328132	0.994768
12.8959	12.752	0.32636	0.993515
12.8964	12.7525	0.32417	0.993886
12.8969	12.7529	0.327425	0.999877
12.8974	12.7534	0.327464	0.997908
12.8978	12.7538	0.327633	0.996179
12.8983	12.7543	0.327717	1.00028
12.8988	12.7548	0.326756	1.00081
