# 1304     AichiSR QXAFS
# Start     : 8.9544
# End       : 9.0544
# Dir       : Backward
# Points    : 300
# ScanTime  : 1.01549
# Date      : 13.04.23 22:25
# Ring Cur. : 25.5[mA]
12.7557	12.6118	0.30369	0.23138
12.7562	12.6122	0.303066	0.232286
12.7566	12.6127	0.303577	0.234754
12.7571	12.6131	0.304585	0.236066
12.7576	12.6136	0.304244	0.233856
12.7581	12.6141	0.303541	0.233774
12.7585	12.6146	0.305985	0.237228
12.759	12.615	0.304572	0.237664
12.7595	12.6155	0.305316	0.237883
12.7599	12.616	0.30494	0.237572
12.7604	12.6165	0.307347	0.237057
12.7609	12.6169	0.305382	0.236463
12.7614	12.6174	0.306364	0.239466
12.7618	12.6179	0.306992	0.240519
12.7623	12.6184	0.304767	0.236754
12.7628	12.6188	0.304375	0.236173
12.7632	12.6193	0.306359	0.237997
12.7637	12.6198	0.305229	0.240402
12.7642	12.6202	0.304503	0.238487
12.7647	12.6207	0.305893	0.238689
12.7651	12.6212	0.307759	0.2385
12.7656	12.6217	0.304012	0.237574
12.7661	12.6221	0.308528	0.240956
12.7666	12.6226	0.307737	0.242928
12.767	12.6231	0.305772	0.238764
12.7675	12.6235	0.305684	0.239757
12.768	12.624	0.306606	0.24181
12.7684	12.6245	0.306977	0.243871
12.7689	12.625	0.305848	0.243844
12.7694	12.6254	0.307038	0.243767
12.7699	12.6259	0.307474	0.241144
12.7703	12.6264	0.306671	0.24348
12.7708	12.6269	0.306608	0.246396
12.7713	12.6274	0.308163	0.246559
12.7717	12.6278	0.303309	0.243161
12.7722	12.6283	0.306407	0.24353
12.7727	12.6288	0.30797	0.247174
12.7732	12.6292	0.306789	0.24683
12.7736	12.6297	0.306105	0.247453
12.7741	12.6302	0.307405	0.244985
12.7746	12.6307	0.308292	0.244852
12.7751	12.6311	0.307597	0.244957
12.7755	12.6316	0.30842	0.2476
12.776	12.6321	0.306366	0.245775
12.7765	12.6325	0.306781	0.243626
12.7769	12.633	0.308322	0.244847
12.7774	12.6335	0.306556	0.246441
12.7779	12.6339	0.307643	0.246727
12.7784	12.6344	0.307903	0.246612
12.7788	12.6349	0.307627	0.244348
12.7793	12.6354	0.308311	0.245498
12.7798	12.6358	0.308407	0.24699
12.7802	12.6363	0.309348	0.250391
12.7807	12.6368	0.307959	0.249103
12.7812	12.6373	0.306985	0.247437
12.7817	12.6377	0.3097	0.248663
12.7821	12.6382	0.308302	0.250274
12.7826	12.6387	0.310038	0.251402
12.7831	12.6391	0.307968	0.25058
12.7836	12.6396	0.309495	0.251273
12.784	12.6401	0.310922	0.251012
12.7845	12.6405	0.306344	0.250366
12.785	12.641	0.308648	0.254236
12.7854	12.6415	0.30908	0.254529
12.7859	12.642	0.30816	0.250601
12.7864	12.6424	0.309411	0.251907
12.7869	12.6429	0.309337	0.252978
12.7873	12.6433	0.308763	0.253716
12.7878	12.6438	0.307823	0.251226
12.7883	12.6443	0.307619	0.249526
12.7887	12.6448	0.308114	0.248329
12.7892	12.6452	0.305808	0.247912
12.7897	12.6457	0.307037	0.24803
12.7902	12.6462	0.306455	0.247097
12.7906	12.6467	0.307052	0.243472
12.7911	12.6472	0.307621	0.243923
12.7916	12.6476	0.309949	0.244012
12.7921	12.6481	0.309394	0.244793
12.7925	12.6486	0.309493	0.241909
12.793	12.6491	0.310773	0.239743
12.7935	12.6495	0.311497	0.239589
12.7939	12.65	0.310266	0.238631
12.7944	12.6505	0.312288	0.237421
12.7949	12.6509	0.312588	0.236026
12.7954	12.6514	0.309899	0.229583
12.7958	12.6519	0.311672	0.229014
12.7963	12.6524	0.312719	0.228917
12.7968	12.6528	0.311087	0.227361
12.7972	12.6533	0.311449	0.223633
12.7977	12.6538	0.310218	0.221121
12.7982	12.6542	0.312982	0.221355
12.7987	12.6547	0.310366	0.219889
12.7991	12.6552	0.312109	0.220515
12.7996	12.6557	0.311894	0.218592
12.8001	12.6562	0.311053	0.214446
12.8006	12.6566	0.312446	0.215034
12.801	12.6571	0.312684	0.215233
12.8015	12.6576	0.310666	0.216896
12.802	12.6581	0.312232	0.215841
12.8024	12.6585	0.310526	0.21466
12.8029	12.659	0.311618	0.215792
12.8034	12.6595	0.310939	0.216456
12.8039	12.6599	0.313027	0.218894
12.8043	12.6604	0.312378	0.218403
12.8048	12.6609	0.310324	0.218782
12.8053	12.6613	0.313268	0.221252
12.8057	12.6618	0.313459	0.223817
12.8062	12.6623	0.311306	0.225251
12.8067	12.6627	0.313006	0.226915
12.8072	12.6632	0.313936	0.226883
12.8076	12.6637	0.315208	0.229204
12.8081	12.6641	0.313534	0.2323
12.8086	12.6646	0.313102	0.235185
12.8091	12.6651	0.314091	0.234239
12.8095	12.6656	0.312959	0.235024
12.81	12.666	0.313371	0.235805
12.8105	12.6665	0.3122	0.240488
12.8109	12.667	0.312205	0.241765
12.8114	12.6675	0.313218	0.243503
12.8119	12.6679	0.313294	0.244313
12.8124	12.6684	0.314072	0.247803
12.8128	12.6689	0.312232	0.249634
12.8133	12.6693	0.314079	0.254215
12.8138	12.6698	0.314381	0.254675
12.8142	12.6703	0.312421	0.25388
12.8147	12.6707	0.312582	0.256667
12.8152	12.6712	0.315273	0.26125
12.8157	12.6717	0.312359	0.261241
12.8161	12.6722	0.312619	0.26153
12.8166	12.6726	0.314254	0.263555
12.8171	12.6731	0.315026	0.265012
12.8176	12.6736	0.314816	0.269535
12.818	12.674	0.313848	0.268839
12.8185	12.6745	0.314477	0.267388
12.819	12.675	0.313654	0.265427
12.8194	12.6755	0.316104	0.269683
12.8199	12.676	0.315508	0.273264
12.8204	12.6764	0.312783	0.271408
12.8209	12.6769	0.314074	0.271558
12.8213	12.6774	0.315983	0.272142
12.8218	12.6779	0.315367	0.271909
12.8223	12.6783	0.313912	0.272119
12.8227	12.6788	0.314788	0.27242
12.8232	12.6793	0.313032	0.269539
12.8237	12.6797	0.313728	0.266145
12.8242	12.6802	0.313526	0.267525
12.8246	12.6807	0.315088	0.266188
12.8251	12.6812	0.313308	0.262718
12.8256	12.6816	0.314088	0.260873
12.8261	12.6821	0.316709	0.257037
12.8265	12.6826	0.315807	0.256359
12.827	12.683	0.314133	0.254724
12.8275	12.6835	0.315279	0.254342
12.8279	12.684	0.31605	0.250751
12.8284	12.6845	0.316738	0.246256
12.8289	12.6849	0.316313	0.245389
12.8294	12.6854	0.315401	0.24269
12.8298	12.6859	0.314605	0.240898
12.8303	12.6864	0.31659	0.235978
12.8308	12.6869	0.316927	0.232698
12.8312	12.6873	0.315851	0.22904
12.8317	12.6878	0.317439	0.227751
12.8322	12.6883	0.318609	0.226144
12.8327	12.6887	0.318667	0.221417
12.8331	12.6892	0.319935	0.219394
12.8336	12.6897	0.319353	0.220098
12.8341	12.6901	0.319593	0.220484
12.8346	12.6906	0.317124	0.222134
12.835	12.6911	0.319257	0.222722
12.8355	12.6916	0.320357	0.22501
12.836	12.692	0.317989	0.230587
12.8364	12.6925	0.318356	0.235705
12.8369	12.6929	0.319952	0.24088
12.8374	12.6934	0.318667	0.2431
12.8379	12.6939	0.3187	0.246263
12.8383	12.6943	0.3194	0.251317
12.8388	12.6948	0.319274	0.256482
12.8393	12.6953	0.319437	0.256989
12.8397	12.6958	0.319857	0.2586
12.8402	12.6963	0.321851	0.261339
12.8407	12.6967	0.319173	0.259819
12.8412	12.6972	0.32007	0.259199
12.8416	12.6977	0.321613	0.259285
12.8421	12.6982	0.320725	0.254543
12.8426	12.6986	0.319438	0.250566
12.8431	12.6991	0.319277	0.249642
12.8435	12.6995	0.316399	0.244985
12.844	12.7	0.319116	0.242914
12.8445	12.7005	0.31866	0.23869
12.8449	12.701	0.321192	0.234539
12.8454	12.7014	0.320919	0.232116
12.8459	12.7019	0.319073	0.230172
12.8464	12.7024	0.322094	0.229025
12.8468	12.7028	0.321054	0.225473
12.8473	12.7033	0.322904	0.226799
12.8478	12.7038	0.322014	0.22753
12.8482	12.7043	0.321277	0.232776
12.8487	12.7047	0.321254	0.23525
12.8492	12.7052	0.320745	0.239992
12.8497	12.7057	0.322446	0.248521
12.8501	12.7062	0.321508	0.255488
12.8506	12.7067	0.321437	0.2666
12.8511	12.7071	0.323298	0.276529
12.8516	12.7076	0.323767	0.289799
12.852	12.7081	0.323515	0.300152
12.8525	12.7086	0.322356	0.313568
12.853	12.709	0.32374	0.330037
12.8534	12.7095	0.324894	0.343078
12.8539	12.71	0.322745	0.354604
12.8544	12.7104	0.327532	0.370262
12.8549	12.7109	0.323875	0.380503
12.8553	12.7114	0.323853	0.394246
12.8558	12.7119	0.323839	0.406767
12.8563	12.7123	0.323815	0.415636
12.8567	12.7128	0.324567	0.426219
12.8572	12.7133	0.324918	0.436324
12.8577	12.7137	0.324525	0.446589
12.8582	12.7142	0.324245	0.453238
12.8586	12.7147	0.322691	0.460805
12.8591	12.7152	0.32719	0.471215
12.8596	12.7156	0.324124	0.478671
12.8601	12.7161	0.322652	0.49003
12.8605	12.7166	0.323373	0.499973
12.861	12.7171	0.325454	0.504911
12.8615	12.7175	0.326699	0.511208
12.8619	12.718	0.324641	0.51621
12.8624	12.7185	0.323122	0.516956
12.8629	12.7189	0.324904	0.514704
12.8634	12.7194	0.324775	0.511492
12.8638	12.7199	0.325696	0.506736
12.8643	12.7203	0.323102	0.500296
12.8648	12.7208	0.322808	0.503261
12.8652	12.7213	0.324209	0.503807
12.8657	12.7218	0.323805	0.510738
12.8662	12.7222	0.32553	0.526642
12.8667	12.7227	0.323358	0.550473
12.8671	12.7231	0.322769	0.583536
12.8676	12.7236	0.321108	0.620979
12.8681	12.7241	0.321166	0.67225
12.8686	12.7246	0.323714	0.724788
12.869	12.725	0.319311	0.770006
12.8695	12.7255	0.317517	0.809469
12.87	12.726	0.320226	0.846659
12.8704	12.7265	0.322601	0.876701
12.8709	12.7269	0.323565	0.894509
12.8714	12.7274	0.322816	0.906832
12.8719	12.7279	0.324419	0.926247
12.8723	12.7284	0.324276	0.933189
12.8728	12.7288	0.323957	0.938037
12.8733	12.7293	0.326306	0.95026
12.8737	12.7298	0.325488	0.95653
12.8742	12.7302	0.323791	0.956578
12.8747	12.7307	0.324801	0.96232
12.8752	12.7312	0.326572	0.963281
12.8756	12.7317	0.325375	0.962967
12.8761	12.7321	0.32549	0.967476
12.8766	12.7326	0.325951	0.97281
12.8771	12.7331	0.322881	0.970604
12.8775	12.7335	0.324794	0.970241
12.878	12.734	0.327766	0.977777
12.8785	12.7345	0.325724	0.97686
12.8789	12.735	0.324193	0.976127
12.8794	12.7355	0.326406	0.983518
12.8799	12.7359	0.327276	0.98137
12.8804	12.7364	0.327216	0.981486
12.8808	12.7369	0.326295	0.984296
12.8813	12.7374	0.325913	0.990866
12.8818	12.7379	0.324884	0.984096
12.8822	12.7383	0.325564	0.986009
12.8827	12.7388	0.330536	0.994185
12.8832	12.7393	0.32706	0.991164
12.8837	12.7397	0.325234	0.989511
12.8841	12.7402	0.326043	0.98869
12.8846	12.7407	0.327429	0.992034
12.8851	12.7412	0.328175	0.993276
12.8856	12.7416	0.328001	0.995425
12.886	12.7421	0.326303	0.994469
12.8865	12.7426	0.327038	0.992222
12.887	12.743	0.329426	0.994623
12.8874	12.7435	0.330145	0.996794
12.8879	12.744	0.328491	0.996217
12.8884	12.7444	0.328019	1.00016
12.8889	12.7449	0.329151	0.997907
12.8893	12.7454	0.329473	0.998195
12.8898	12.7459	0.330288	0.999458
12.8903	12.7463	0.32843	1.00135
12.8907	12.7468	0.327563	1.00246
12.8912	12.7473	0.328653	0.995765
12.8917	12.7478	0.328854	0.999587
12.8922	12.7482	0.330515	1.00279
12.8926	12.7487	0.330341	1.00368
12.8931	12.7492	0.328406	1.00473
12.8936	12.7496	0.329528	1.00252
12.8941	12.7501	0.331617	1.00847
12.8945	12.7506	0.330493	1.00302
12.895	12.751	0.330033	1.00111
12.8955	12.7515	0.330369	1.01095
12.8959	12.752	0.330473	1.00262
12.8964	12.7524	0.328392	0.999157
12.8969	12.7529	0.330232	1.00405
12.8974	12.7534	0.329139	1.00645
12.8978	12.7538	0.327078	1.00233
12.8983	12.7543	0.328023	1.00289
12.8988	12.7548	0.331191	1.00838
