# 1304     AichiSR QXAFS
# Start     : 8.9544
# End       : 9.0544
# Dir       : Backward
# Points    : 300
# ScanTime  : 1.01549
# Date      : 13.04.23 22:23
# Ring Cur. : 25.5[mA]
12.7557	12.6118	0.307463	0.23406
12.7562	12.6122	0.306623	0.236446
12.7566	12.6127	0.305647	0.238536
12.7571	12.6131	0.308232	0.236491
12.7576	12.6136	0.308687	0.236856
12.7581	12.6141	0.309074	0.238121
12.7585	12.6145	0.310702	0.240847
12.759	12.615	0.306924	0.239403
12.7595	12.6155	0.308025	0.239245
12.7599	12.616	0.310557	0.240796
12.7604	12.6164	0.309663	0.241379
12.7609	12.6169	0.309928	0.242072
12.7614	12.6174	0.307755	0.241951
12.7618	12.6179	0.310522	0.24222
12.7623	12.6184	0.308531	0.239108
12.7628	12.6188	0.310888	0.241669
12.7632	12.6193	0.309933	0.242488
12.7637	12.6197	0.309463	0.241799
12.7642	12.6202	0.307919	0.239836
12.7647	12.6207	0.311433	0.241928
12.7651	12.6212	0.31008	0.242076
12.7656	12.6217	0.308507	0.241811
12.7661	12.6221	0.310607	0.244465
12.7666	12.6226	0.308455	0.241781
12.767	12.6231	0.312644	0.243079
12.7675	12.6235	0.310353	0.244158
12.768	12.624	0.311669	0.247383
12.7684	12.6245	0.309364	0.245008
12.7689	12.625	0.308488	0.243752
12.7694	12.6254	0.310928	0.247178
12.7699	12.6259	0.310602	0.246704
12.7703	12.6264	0.309228	0.248349
12.7708	12.6269	0.309862	0.247506
12.7713	12.6274	0.310765	0.248349
12.7717	12.6278	0.312396	0.247457
12.7722	12.6283	0.309692	0.248514
12.7727	12.6288	0.311907	0.250896
12.7732	12.6292	0.311767	0.25186
12.7736	12.6297	0.309864	0.247737
12.7741	12.6302	0.311714	0.248365
12.7746	12.6306	0.313034	0.249153
12.7751	12.6311	0.310801	0.250314
12.7755	12.6316	0.310785	0.250246
12.776	12.6321	0.309712	0.248597
12.7765	12.6325	0.311536	0.247112
12.7769	12.633	0.312839	0.248305
12.7774	12.6334	0.312483	0.249289
12.7779	12.6339	0.310938	0.250652
12.7784	12.6344	0.311432	0.247847
12.7788	12.6349	0.314886	0.248589
12.7793	12.6353	0.314084	0.249794
12.7798	12.6358	0.311653	0.2508
12.7802	12.6363	0.312687	0.252631
12.7807	12.6368	0.313522	0.25173
12.7812	12.6373	0.312667	0.250412
12.7817	12.6377	0.313723	0.251621
12.7821	12.6382	0.313304	0.254509
12.7826	12.6387	0.312524	0.25527
12.7831	12.6391	0.312159	0.252938
12.7836	12.6396	0.315374	0.254403
12.784	12.64	0.312126	0.255225
12.7845	12.6405	0.310801	0.255436
12.785	12.641	0.31365	0.256653
12.7854	12.6415	0.313795	0.254523
12.7859	12.6419	0.314345	0.255369
12.7864	12.6424	0.314004	0.256944
12.7869	12.6429	0.313605	0.256514
12.7873	12.6433	0.311623	0.25369
12.7878	12.6438	0.311525	0.252965
12.7883	12.6443	0.313848	0.253886
12.7887	12.6447	0.311605	0.25261
12.7892	12.6452	0.309149	0.250591
12.7897	12.6457	0.31086	0.251772
12.7902	12.6462	0.310991	0.249426
12.7906	12.6467	0.312084	0.247889
12.7911	12.6471	0.313528	0.248918
12.7916	12.6476	0.315099	0.250357
12.7921	12.6481	0.312252	0.246356
12.7925	12.6486	0.31121	0.243135
12.793	12.649	0.316145	0.243146
12.7935	12.6495	0.315272	0.241791
12.7939	12.65	0.312183	0.239647
12.7944	12.6504	0.314236	0.238717
12.7949	12.6509	0.315196	0.235807
12.7954	12.6514	0.318142	0.234567
12.7958	12.6519	0.316764	0.233928
12.7963	12.6524	0.316207	0.232813
12.7968	12.6528	0.314887	0.230369
12.7972	12.6533	0.314318	0.226773
12.7977	12.6537	0.318512	0.224798
12.7982	12.6542	0.316707	0.224598
12.7987	12.6547	0.31666	0.223964
12.7991	12.6552	0.315031	0.221875
12.7996	12.6557	0.31601	0.219875
12.8001	12.6561	0.318519	0.218104
12.8006	12.6566	0.317716	0.219337
12.801	12.6571	0.317657	0.220341
12.8015	12.6576	0.316032	0.218973
12.802	12.658	0.316478	0.217151
12.8024	12.6585	0.31878	0.218665
12.8029	12.659	0.317646	0.220884
12.8034	12.6594	0.316086	0.220898
12.8039	12.6599	0.315779	0.220545
12.8043	12.6604	0.316976	0.221355
12.8048	12.6609	0.318358	0.222576
12.8053	12.6613	0.317574	0.225652
12.8057	12.6618	0.318329	0.227341
12.8062	12.6623	0.317335	0.227733
12.8067	12.6627	0.318938	0.228952
12.8072	12.6632	0.321259	0.231988
12.8076	12.6637	0.318559	0.233693
12.8081	12.6641	0.317984	0.235693
12.8086	12.6646	0.317455	0.237011
12.8091	12.6651	0.31786	0.237107
12.8095	12.6656	0.318173	0.238582
12.81	12.666	0.319663	0.242292
12.8105	12.6665	0.319552	0.247078
12.8109	12.667	0.316927	0.24434
12.8114	12.6675	0.316017	0.246995
12.8119	12.6679	0.319384	0.249501
12.8124	12.6684	0.318402	0.252855
12.8128	12.6689	0.316887	0.254126
12.8133	12.6693	0.319624	0.256776
12.8138	12.6698	0.318533	0.256132
12.8142	12.6703	0.319406	0.259785
12.8147	12.6707	0.318527	0.261438
12.8152	12.6712	0.318382	0.265507
12.8157	12.6717	0.317035	0.26479
12.8161	12.6721	0.317728	0.264809
12.8166	12.6726	0.318625	0.268488
12.8171	12.6731	0.317109	0.270152
12.8176	12.6735	0.318791	0.271354
12.818	12.674	0.319416	0.270345
12.8185	12.6745	0.319159	0.2715
12.819	12.675	0.318417	0.272124
12.8194	12.6755	0.318577	0.273842
12.8199	12.6759	0.320551	0.276523
12.8204	12.6764	0.318465	0.275248
12.8209	12.6769	0.317974	0.27306
12.8213	12.6774	0.320773	0.276221
12.8218	12.6779	0.319664	0.277273
12.8223	12.6783	0.318948	0.276285
12.8227	12.6788	0.318621	0.274412
12.8232	12.6793	0.319898	0.273502
12.8237	12.6797	0.319667	0.272855
12.8242	12.6802	0.317619	0.270948
12.8246	12.6807	0.32038	0.270021
12.8251	12.6812	0.317664	0.266678
12.8256	12.6816	0.31856	0.262416
12.8261	12.6821	0.319374	0.261464
12.8265	12.6826	0.319554	0.261339
12.827	12.683	0.317785	0.258392
12.8275	12.6835	0.317297	0.253178
12.8279	12.684	0.317983	0.25112
12.8284	12.6844	0.317734	0.247766
12.8289	12.6849	0.318385	0.248363
12.8294	12.6854	0.317778	0.246307
12.8298	12.6859	0.318228	0.240784
12.8303	12.6864	0.317125	0.236231
12.8308	12.6868	0.318701	0.234155
12.8312	12.6873	0.31931	0.23253
12.8317	12.6878	0.317831	0.229282
12.8322	12.6883	0.31907	0.224922
12.8327	12.6887	0.320828	0.222342
12.8331	12.6892	0.319929	0.220989
12.8336	12.6897	0.320047	0.221439
12.8341	12.6901	0.319356	0.222647
12.8346	12.6906	0.319998	0.22143
12.835	12.6911	0.319547	0.221407
12.8355	12.6915	0.325036	0.229961
12.836	12.692	0.322318	0.233434
12.8364	12.6925	0.320534	0.236044
12.8369	12.6929	0.319103	0.238852
12.8374	12.6934	0.318539	0.243359
12.8379	12.6939	0.319054	0.247603
12.8383	12.6943	0.321205	0.253174
12.8388	12.6948	0.318129	0.257454
12.8393	12.6953	0.318221	0.255756
12.8397	12.6958	0.319423	0.256468
12.8402	12.6962	0.320657	0.260813
12.8407	12.6967	0.320296	0.260819
12.8412	12.6972	0.318008	0.258806
12.8416	12.6977	0.317877	0.256753
12.8421	12.6981	0.322514	0.25517
12.8426	12.6986	0.319818	0.250851
12.8431	12.6991	0.319435	0.249927
12.8435	12.6995	0.319359	0.247419
12.844	12.7	0.318736	0.241367
12.8445	12.7005	0.317892	0.236524
12.8449	12.7009	0.319144	0.234781
12.8454	12.7014	0.320583	0.233561
12.8459	12.7019	0.318409	0.229207
12.8464	12.7024	0.319584	0.225734
12.8468	12.7028	0.32242	0.225752
12.8473	12.7033	0.321256	0.225977
12.8478	12.7038	0.32193	0.2296
12.8482	12.7042	0.322656	0.233249
12.8487	12.7047	0.320365	0.234328
12.8492	12.7052	0.322407	0.239998
12.8497	12.7057	0.324603	0.249729
12.8501	12.7062	0.322433	0.257964
12.8506	12.7066	0.318864	0.266484
12.8511	12.7071	0.322711	0.276744
12.8516	12.7076	0.324587	0.288703
12.852	12.7081	0.322206	0.299516
12.8525	12.7086	0.32354	0.315166
12.853	12.709	0.32562	0.331854
12.8534	12.7095	0.323274	0.341633
12.8539	12.7099	0.323445	0.354922
12.8544	12.7104	0.325888	0.371709
12.8549	12.7109	0.325802	0.386069
12.8553	12.7114	0.326006	0.39723
12.8558	12.7119	0.323802	0.40571
12.8563	12.7123	0.324897	0.417224
12.8567	12.7128	0.324854	0.427769
12.8572	12.7132	0.325711	0.438374
12.8577	12.7137	0.325014	0.447776
12.8582	12.7142	0.322763	0.452614
12.8586	12.7147	0.325862	0.461114
12.8591	12.7151	0.326126	0.471509
12.8596	12.7156	0.32612	0.481092
12.8601	12.7161	0.324885	0.491415
12.8605	12.7166	0.325691	0.498661
12.861	12.7171	0.325143	0.505474
12.8615	12.7175	0.326625	0.516512
12.8619	12.718	0.327252	0.52084
12.8624	12.7185	0.325499	0.521005
12.8629	12.7189	0.324616	0.513627
12.8634	12.7194	0.326763	0.513037
12.8638	12.7199	0.325349	0.509224
12.8643	12.7203	0.325401	0.505735
12.8648	12.7208	0.325925	0.506004
12.8652	12.7213	0.324654	0.50578
12.8657	12.7217	0.326406	0.512013
12.8662	12.7222	0.324373	0.527813
12.8667	12.7227	0.326058	0.553775
12.8671	12.7231	0.326859	0.589063
12.8676	12.7236	0.324534	0.624509
12.8681	12.7241	0.323037	0.674549
12.8686	12.7245	0.323215	0.728819
12.869	12.725	0.322366	0.779236
12.8695	12.7255	0.320737	0.815487
12.87	12.726	0.322945	0.85329
12.8704	12.7265	0.327307	0.881773
12.8709	12.7269	0.324813	0.898849
12.8714	12.7274	0.325961	0.91748
12.8719	12.7279	0.326897	0.933925
12.8723	12.7284	0.326086	0.936495
12.8728	12.7288	0.326821	0.942054
12.8733	12.7293	0.328642	0.957611
12.8737	12.7298	0.325824	0.961034
12.8742	12.7302	0.325971	0.959247
12.8747	12.7307	0.326807	0.966197
12.8752	12.7312	0.330425	0.967573
12.8756	12.7317	0.325747	0.969598
12.8761	12.7321	0.327397	0.980468
12.8766	12.7326	0.328153	0.983992
12.8771	12.7331	0.327514	0.975142
12.8775	12.7335	0.330597	0.980131
12.878	12.734	0.328962	0.989505
12.8785	12.7345	0.328509	0.987247
12.8789	12.735	0.326309	0.984352
12.8794	12.7354	0.328729	0.98807
12.8799	12.7359	0.330169	0.991664
12.8804	12.7364	0.328361	0.987816
12.8808	12.7369	0.329062	0.992537
12.8813	12.7374	0.32999	0.998324
12.8818	12.7378	0.328564	0.99313
12.8822	12.7383	0.33022	0.996854
12.8827	12.7388	0.331242	1.00065
12.8832	12.7393	0.330114	1.00093
12.8837	12.7397	0.329906	1.00151
12.8841	12.7402	0.32921	0.998118
12.8846	12.7407	0.330719	0.99563
12.8851	12.7411	0.331125	1.0063
12.8856	12.7416	0.332199	1.0064
12.886	12.7421	0.330732	1.00246
12.8865	12.7425	0.328751	0.999806
12.887	12.743	0.332898	1.00908
12.8874	12.7435	0.331599	1.00983
12.8879	12.7439	0.331117	1.00987
12.8884	12.7444	0.332132	1.01114
12.8889	12.7449	0.332278	1.00962
12.8893	12.7454	0.334439	1.00934
12.8898	12.7459	0.333215	1.00909
12.8903	12.7463	0.333831	1.01523
12.8907	12.7468	0.333959	1.01494
12.8912	12.7473	0.330466	1.00916
12.8917	12.7478	0.333897	1.01296
12.8922	12.7482	0.332713	1.0169
12.8926	12.7487	0.333643	1.01354
12.8931	12.7492	0.332846	1.01433
12.8936	12.7496	0.332737	1.01294
12.8941	12.7501	0.334727	1.01326
12.8945	12.7506	0.332898	1.01571
12.895	12.751	0.334464	1.01985
12.8955	12.7515	0.333351	1.01786
12.8959	12.752	0.332823	1.01421
12.8964	12.7524	0.334969	1.02022
12.8969	12.7529	0.333413	1.01796
12.8974	12.7534	0.332832	1.01878
12.8978	12.7538	0.331208	1.01426
12.8983	12.7543	0.332119	1.01664
12.8988	12.7548	0.334782	1.01604
