# 1304     AichiSR QXAFS
# Start     : 8.9544
# End       : 9.0544
# Dir       : Forward
# Points    : 300
# ScanTime  : 1.01549
# Date      : 13.04.23 22:25
# Ring Cur. : 25.5[mA]
12.7557	12.7557	0.396978	1.21394
12.7562	12.7552	0.396602	1.21126
12.7566	12.7548	0.398582	1.21046
12.7571	12.7543	0.398028	1.2123
12.7576	12.7538	0.39699	1.21264
12.7581	12.7534	0.396158	1.20944
12.7585	12.7529	0.395905	1.2096
12.759	12.7524	0.397503	1.20869
12.7595	12.752	0.396822	1.20794
12.7599	12.7515	0.395726	1.212
12.7604	12.751	0.396196	1.20934
12.7609	12.7505	0.395431	1.20442
12.7614	12.7501	0.397899	1.20502
12.7618	12.7496	0.398483	1.20663
12.7623	12.7492	0.395247	1.20859
12.7628	12.7487	0.396204	1.20572
12.7632	12.7482	0.395814	1.2033
12.7637	12.7478	0.397403	1.20592
12.7642	12.7473	0.396039	1.20711
12.7647	12.7468	0.39549	1.20557
12.7651	12.7463	0.394989	1.20416
12.7656	12.7459	0.3956	1.20022
12.7661	12.7454	0.396127	1.2009
12.7666	12.7449	0.39673	1.20347
12.767	12.7444	0.395363	1.20544
12.7675	12.7439	0.393859	1.19912
12.768	12.7435	0.395306	1.19844
12.7684	12.743	0.397342	1.2072
12.7689	12.7425	0.39941	1.21414
12.7694	12.7421	0.39661	1.20433
12.7699	12.7416	0.396736	1.19931
12.7703	12.7411	0.393355	1.19658
12.7708	12.7407	0.395833	1.19619
12.7713	12.7402	0.395916	1.19935
12.7717	12.7397	0.393352	1.19723
12.7722	12.7393	0.394355	1.19345
12.7727	12.7388	0.394049	1.1928
12.7732	12.7383	0.39641	1.19013
12.7736	12.7379	0.393969	1.19306
12.7741	12.7374	0.392357	1.19225
12.7746	12.7369	0.394548	1.1908
12.7751	12.7364	0.393466	1.18626
12.7755	12.7359	0.394844	1.18627
12.776	12.7355	0.395644	1.18778
12.7765	12.735	0.394441	1.18565
12.7769	12.7345	0.393326	1.18191
12.7774	12.734	0.39395	1.17955
12.7779	12.7335	0.393696	1.18009
12.7784	12.7331	0.394668	1.18125
12.7788	12.7326	0.393311	1.17983
12.7793	12.7321	0.395534	1.17627
12.7798	12.7317	0.393272	1.17322
12.7802	12.7312	0.395935	1.17049
12.7807	12.7307	0.395182	1.16951
12.7812	12.7302	0.393232	1.16765
12.7817	12.7298	0.393785	1.15957
12.7821	12.7293	0.394773	1.15695
12.7826	12.7288	0.394659	1.15214
12.7831	12.7284	0.394303	1.14879
12.7836	12.7279	0.393748	1.14278
12.784	12.7274	0.394814	1.13361
12.7845	12.7269	0.393361	1.11581
12.785	12.7265	0.392546	1.1003
12.7854	12.726	0.392692	1.08251
12.7859	12.7255	0.390673	1.05193
12.7864	12.725	0.38982	1.01025
12.7869	12.7246	0.389322	0.966223
12.7873	12.7241	0.390364	0.913985
12.7878	12.7236	0.392275	0.85644
12.7883	12.7231	0.392803	0.796978
12.7887	12.7227	0.394524	0.739363
12.7892	12.7222	0.395278	0.69021
12.7897	12.7218	0.395384	0.656913
12.7902	12.7213	0.395149	0.635306
12.7906	12.7208	0.395444	0.622259
12.7911	12.7203	0.394753	0.612552
12.7916	12.7199	0.396494	0.611172
12.7921	12.7194	0.39706	0.615194
12.7925	12.719	0.395982	0.621436
12.793	12.7185	0.395435	0.627316
12.7935	12.718	0.395824	0.628641
12.7939	12.7175	0.39524	0.629547
12.7944	12.7171	0.395588	0.623728
12.7949	12.7166	0.396529	0.620727
12.7954	12.7161	0.396534	0.613772
12.7958	12.7156	0.396672	0.599681
12.7963	12.7152	0.396818	0.588093
12.7968	12.7147	0.396547	0.57777
12.7972	12.7142	0.396524	0.570293
12.7977	12.7137	0.396133	0.56013
12.7982	12.7133	0.395881	0.547154
12.7987	12.7128	0.396337	0.538113
12.7991	12.7123	0.397282	0.527927
12.7996	12.7119	0.396429	0.516595
12.8001	12.7114	0.396429	0.503443
12.8006	12.7109	0.396365	0.488809
12.801	12.7104	0.398347	0.473203
12.8015	12.71	0.396267	0.459783
12.802	12.7095	0.39768	0.44486
12.8024	12.709	0.396222	0.428906
12.8029	12.7086	0.395696	0.4091
12.8034	12.7081	0.396633	0.391548
12.8039	12.7076	0.396946	0.37776
12.8043	12.7071	0.397853	0.363384
12.8048	12.7067	0.396216	0.348979
12.8053	12.7062	0.397307	0.332829
12.8057	12.7057	0.398436	0.322726
12.8062	12.7052	0.397569	0.311946
12.8067	12.7047	0.397379	0.301901
12.8072	12.7042	0.397524	0.29423
12.8076	12.7038	0.396353	0.285879
12.8081	12.7033	0.398781	0.282271
12.8086	12.7028	0.398113	0.279078
12.8091	12.7024	0.396461	0.279902
12.8095	12.7019	0.397651	0.279977
12.81	12.7014	0.395269	0.281284
12.8105	12.701	0.399698	0.284672
12.8109	12.7005	0.397722	0.289604
12.8114	12.7	0.397087	0.295145
12.8119	12.6995	0.396608	0.297301
12.8124	12.6991	0.396314	0.301458
12.8128	12.6986	0.39786	0.305801
12.8133	12.6982	0.398022	0.310215
12.8138	12.6977	0.396054	0.315101
12.8142	12.6972	0.397732	0.319098
12.8147	12.6967	0.397418	0.318279
12.8152	12.6963	0.398333	0.321694
12.8157	12.6958	0.397327	0.321959
12.8161	12.6953	0.396259	0.321209
12.8166	12.6948	0.397065	0.322057
12.8171	12.6944	0.395469	0.317516
12.8176	12.6939	0.3975	0.313449
12.818	12.6934	0.396682	0.310675
12.8185	12.6929	0.397016	0.30591
12.819	12.6925	0.396877	0.300847
12.8194	12.692	0.39466	0.293944
12.8199	12.6916	0.397924	0.287737
12.8204	12.6911	0.397487	0.283839
12.8209	12.6906	0.396658	0.279968
12.8213	12.6901	0.396099	0.276229
12.8218	12.6897	0.39594	0.272596
12.8223	12.6892	0.397328	0.271435
12.8227	12.6887	0.395589	0.272189
12.8232	12.6883	0.395188	0.276097
12.8237	12.6878	0.395846	0.278522
12.8242	12.6873	0.394002	0.279556
12.8246	12.6869	0.396415	0.284303
12.8251	12.6864	0.396617	0.288678
12.8256	12.6859	0.393437	0.29274
12.8261	12.6854	0.394124	0.297693
12.8265	12.6849	0.39396	0.299495
12.827	12.6845	0.394949	0.303057
12.8275	12.684	0.394942	0.307675
12.8279	12.6835	0.393566	0.311733
12.8284	12.683	0.393905	0.314232
12.8289	12.6826	0.393656	0.314543
12.8294	12.6821	0.39544	0.318907
12.8298	12.6816	0.396847	0.322576
12.8303	12.6812	0.394056	0.326817
12.8308	12.6807	0.396021	0.328946
12.8312	12.6802	0.395861	0.331053
12.8317	12.6797	0.396146	0.333307
12.8322	12.6793	0.395781	0.337602
12.8327	12.6788	0.396489	0.340175
12.8331	12.6783	0.396687	0.339437
12.8336	12.6779	0.393677	0.338954
12.8341	12.6774	0.396975	0.340829
12.8346	12.6769	0.394357	0.342001
12.835	12.6764	0.393252	0.340481
12.8355	12.676	0.39573	0.340678
12.836	12.6755	0.395071	0.339885
12.8364	12.675	0.396798	0.338547
12.8369	12.6745	0.396426	0.337737
12.8374	12.674	0.394615	0.338639
12.8379	12.6736	0.394702	0.335617
12.8383	12.6731	0.395766	0.334613
12.8388	12.6726	0.396604	0.333646
12.8393	12.6722	0.395217	0.333714
12.8397	12.6717	0.393312	0.331969
12.8402	12.6712	0.396097	0.32992
12.8407	12.6707	0.395982	0.326987
12.8412	12.6703	0.39556	0.325004
12.8416	12.6698	0.394895	0.323837
12.8421	12.6693	0.393943	0.32255
12.8426	12.6689	0.393725	0.317786
12.8431	12.6684	0.394601	0.313972
12.8435	12.668	0.394058	0.312691
12.844	12.6675	0.395248	0.311669
12.8445	12.667	0.393658	0.30788
12.8449	12.6665	0.393627	0.304744
12.8454	12.6661	0.396443	0.301593
12.8459	12.6656	0.393237	0.300218
12.8464	12.6651	0.394697	0.298375
12.8468	12.6646	0.393737	0.295732
12.8473	12.6641	0.392675	0.294173
12.8478	12.6637	0.392721	0.289633
12.8482	12.6632	0.395364	0.289838
12.8487	12.6627	0.394484	0.288101
12.8492	12.6623	0.391996	0.28539
12.8497	12.6618	0.393447	0.283007
12.8501	12.6614	0.394243	0.28049
12.8506	12.6609	0.393969	0.277746
12.8511	12.6604	0.392862	0.27878
12.8516	12.6599	0.391797	0.275829
12.852	12.6595	0.391383	0.273259
12.8525	12.659	0.392011	0.271823
12.853	12.6585	0.393717	0.271049
12.8534	12.6581	0.392545	0.27176
12.8539	12.6576	0.389861	0.270626
12.8544	12.6571	0.390962	0.26952
12.8549	12.6566	0.392151	0.267595
12.8553	12.6562	0.392416	0.269233
12.8558	12.6557	0.39344	0.272018
12.8563	12.6552	0.392227	0.272778
12.8567	12.6547	0.392324	0.272554
12.8572	12.6542	0.393836	0.274785
12.8577	12.6538	0.393397	0.276461
12.8582	12.6533	0.392471	0.279448
12.8586	12.6528	0.390942	0.282335
12.8591	12.6524	0.393244	0.282922
12.8596	12.6519	0.392865	0.284663
12.8601	12.6514	0.393344	0.289129
12.8605	12.6509	0.393366	0.291592
12.861	12.6505	0.391437	0.294314
12.8615	12.65	0.392383	0.294646
12.8619	12.6495	0.392423	0.296164
12.8624	12.6491	0.392969	0.298164
12.8629	12.6486	0.392323	0.30245
12.8634	12.6481	0.390053	0.303772
12.8638	12.6476	0.38959	0.303839
12.8643	12.6472	0.390803	0.305675
12.8648	12.6467	0.38889	0.307302
12.8652	12.6462	0.38924	0.309096
12.8657	12.6457	0.386994	0.309664
12.8662	12.6452	0.386341	0.3094
12.8667	12.6448	0.388222	0.310959
12.8671	12.6443	0.387863	0.312571
12.8676	12.6438	0.388139	0.31627
12.8681	12.6433	0.388778	0.315214
12.8686	12.6429	0.388386	0.316795
12.869	12.6424	0.390333	0.316137
12.8695	12.642	0.389627	0.317463
12.87	12.6415	0.390646	0.31966
12.8704	12.641	0.389947	0.320043
12.8709	12.6405	0.38961	0.318527
12.8714	12.6401	0.391029	0.316814
12.8719	12.6396	0.389954	0.318358
12.8723	12.6391	0.390043	0.317935
12.8728	12.6387	0.388758	0.318065
12.8733	12.6382	0.387463	0.315211
12.8737	12.6378	0.391447	0.314799
12.8742	12.6373	0.389859	0.314831
12.8747	12.6368	0.390271	0.315178
12.8752	12.6363	0.388462	0.313761
12.8756	12.6358	0.386962	0.310958
12.8761	12.6354	0.391207	0.311902
12.8766	12.6349	0.389916	0.311421
12.8771	12.6344	0.390971	0.312086
12.8775	12.6339	0.388941	0.309467
12.878	12.6335	0.387483	0.307992
12.8785	12.633	0.390087	0.308633
12.8789	12.6325	0.388384	0.309144
12.8794	12.6321	0.389432	0.31065
12.8799	12.6316	0.38798	0.3097
12.8804	12.6311	0.388065	0.309181
12.8808	12.6306	0.386528	0.308227
12.8813	12.6302	0.388946	0.310626
12.8818	12.6297	0.387388	0.311918
12.8822	12.6292	0.386926	0.309649
12.8827	12.6288	0.386553	0.310136
12.8832	12.6283	0.388738	0.310294
12.8837	12.6278	0.386305	0.310103
12.8841	12.6274	0.386856	0.310885
12.8846	12.6269	0.386705	0.310551
12.8851	12.6264	0.387052	0.307742
12.8856	12.6259	0.387795	0.308952
12.886	12.6254	0.389504	0.308492
12.8865	12.625	0.386988	0.308277
12.887	12.6245	0.386668	0.307507
12.8874	12.624	0.387082	0.305221
12.8879	12.6235	0.386915	0.303563
12.8884	12.6231	0.387327	0.304663
12.8889	12.6226	0.386146	0.305081
12.8893	12.6221	0.386628	0.302069
12.8898	12.6217	0.383964	0.300068
12.8903	12.6212	0.386083	0.300397
12.8907	12.6207	0.386993	0.300752
12.8912	12.6202	0.385307	0.301541
12.8917	12.6198	0.386509	0.300579
12.8922	12.6193	0.384997	0.299158
12.8926	12.6188	0.386771	0.299756
12.8931	12.6184	0.384622	0.299539
12.8936	12.6179	0.384215	0.299335
12.8941	12.6174	0.383237	0.298587
12.8945	12.6169	0.384412	0.297664
12.895	12.6165	0.38425	0.297948
12.8955	12.616	0.385517	0.300094
12.8959	12.6155	0.382978	0.298584
12.8964	12.615	0.383113	0.29785
12.8969	12.6145	0.383081	0.295145
12.8974	12.6141	0.386323	0.297096
12.8978	12.6136	0.382827	0.297495
12.8983	12.6131	0.383463	0.298125
12.8988	12.6127	0.384391	0.29586
