# 1304     AichiSR QXAFS
# Start     : 8.9544
# End       : 9.0544
# Dir       : Forward
# Points    : 300
# ScanTime  : 1.01549
# Date      : 13.04.23 22:23
# Ring Cur. : 25.5[mA]
12.7557	12.7557	0.396775	1.21084
12.7562	12.7552	0.396648	1.20782
12.7566	12.7548	0.397477	1.20614
12.7571	12.7543	0.397216	1.20711
12.7576	12.7538	0.395975	1.20959
12.7581	12.7533	0.395011	1.20659
12.7585	12.7529	0.395431	1.20436
12.759	12.7524	0.397655	1.2052
12.7595	12.752	0.394982	1.20708
12.7599	12.7515	0.395606	1.21087
12.7604	12.751	0.396507	1.20612
12.7609	12.7505	0.395226	1.20412
12.7614	12.7501	0.396055	1.20281
12.7618	12.7496	0.395253	1.20585
12.7623	12.7491	0.397033	1.20753
12.7628	12.7487	0.396416	1.20413
12.7632	12.7482	0.395006	1.20221
12.7637	12.7478	0.396675	1.20687
12.7642	12.7473	0.396569	1.2052
12.7647	12.7468	0.395844	1.20741
12.7651	12.7463	0.395646	1.20641
12.7656	12.7458	0.395057	1.20138
12.7661	12.7454	0.397306	1.2013
12.7666	12.7449	0.396098	1.20354
12.767	12.7444	0.396455	1.20683
12.7675	12.7439	0.396735	1.20559
12.768	12.7435	0.396147	1.20499
12.7684	12.743	0.398564	1.20474
12.7689	12.7425	0.397882	1.20722
12.7694	12.7421	0.398115	1.20675
12.7699	12.7416	0.397394	1.20644
12.7703	12.7411	0.397194	1.20483
12.7708	12.7407	0.398253	1.20462
12.7713	12.7402	0.397887	1.20492
12.7717	12.7397	0.395776	1.20685
12.7722	12.7392	0.397263	1.20278
12.7727	12.7388	0.39651	1.20083
12.7732	12.7383	0.398879	1.20185
12.7736	12.7378	0.398709	1.20471
12.7741	12.7374	0.399106	1.2022
12.7746	12.7369	0.397596	1.19737
12.7751	12.7364	0.398008	1.197
12.7755	12.7359	0.399989	1.19859
12.776	12.7354	0.399055	1.20204
12.7765	12.735	0.398347	1.20278
12.7769	12.7345	0.398014	1.19606
12.7774	12.734	0.398299	1.19458
12.7779	12.7335	0.399277	1.19282
12.7784	12.7331	0.399634	1.19025
12.7788	12.7326	0.397919	1.18959
12.7793	12.7321	0.398619	1.18771
12.7798	12.7317	0.396819	1.18067
12.7802	12.7312	0.398897	1.18016
12.7807	12.7307	0.39841	1.18239
12.7812	12.7302	0.397182	1.17843
12.7817	12.7297	0.398035	1.1719
12.7821	12.7293	0.397551	1.16788
12.7826	12.7288	0.397852	1.16436
12.7831	12.7284	0.398722	1.15907
12.7836	12.7279	0.396786	1.15187
12.784	12.7274	0.395961	1.14016
12.7845	12.7269	0.396186	1.12463
12.785	12.7265	0.397938	1.10951
12.7854	12.726	0.395022	1.0929
12.7859	12.7255	0.394879	1.06194
12.7864	12.725	0.393362	1.02158
12.7869	12.7245	0.391303	0.976122
12.7873	12.7241	0.393788	0.9216
12.7878	12.7236	0.393633	0.862167
12.7883	12.7231	0.395231	0.803809
12.7887	12.7227	0.398517	0.748138
12.7892	12.7222	0.397205	0.698786
12.7897	12.7218	0.399944	0.663398
12.7902	12.7213	0.399854	0.641915
12.7906	12.7208	0.397822	0.624979
12.7911	12.7203	0.398034	0.616687
12.7916	12.7199	0.398866	0.615326
12.7921	12.7194	0.399727	0.619914
12.7925	12.7189	0.399412	0.625505
12.793	12.7185	0.397707	0.630226
12.7935	12.718	0.397747	0.633367
12.7939	12.7175	0.397416	0.631983
12.7944	12.7171	0.400468	0.629477
12.7949	12.7166	0.400298	0.625395
12.7954	12.7161	0.397492	0.616037
12.7958	12.7156	0.397368	0.604764
12.7963	12.7151	0.399926	0.593345
12.7968	12.7147	0.400126	0.581527
12.7972	12.7142	0.399548	0.574465
12.7977	12.7137	0.398976	0.563978
12.7982	12.7132	0.39883	0.551751
12.7987	12.7128	0.398026	0.539164
12.7991	12.7123	0.399494	0.530289
12.7996	12.7119	0.399106	0.520513
12.8001	12.7114	0.397538	0.505853
12.8006	12.7109	0.400146	0.491263
12.801	12.7104	0.399759	0.476499
12.8015	12.7099	0.398205	0.461139
12.802	12.7095	0.399951	0.447325
12.8024	12.709	0.399141	0.430096
12.8029	12.7086	0.398515	0.412197
12.8034	12.7081	0.399375	0.394701
12.8039	12.7076	0.399527	0.379901
12.8043	12.7071	0.399979	0.365658
12.8048	12.7066	0.399138	0.350116
12.8053	12.7062	0.40057	0.335136
12.8057	12.7057	0.398388	0.322248
12.8062	12.7052	0.399507	0.310966
12.8067	12.7047	0.400742	0.303434
12.8072	12.7042	0.397313	0.29523
12.8076	12.7038	0.398888	0.288067
12.8081	12.7033	0.399522	0.282499
12.8086	12.7028	0.398137	0.280156
12.8091	12.7024	0.40011	0.282037
12.8095	12.7019	0.397208	0.282345
12.81	12.7014	0.398668	0.282819
12.8105	12.701	0.39966	0.285882
12.8109	12.7005	0.399378	0.290024
12.8114	12.7	0.399236	0.294544
12.8119	12.6995	0.397384	0.29972
12.8124	12.6991	0.399483	0.302596
12.8128	12.6986	0.399327	0.305802
12.8133	12.6982	0.399602	0.311477
12.8138	12.6977	0.399001	0.316732
12.8142	12.6972	0.396501	0.318886
12.8147	12.6967	0.397717	0.319088
12.8152	12.6963	0.398373	0.321568
12.8157	12.6958	0.398759	0.322139
12.8161	12.6953	0.396457	0.323365
12.8166	12.6948	0.396684	0.322267
12.8171	12.6943	0.397838	0.31809
12.8176	12.6939	0.39817	0.313795
12.818	12.6934	0.399794	0.310246
12.8185	12.6929	0.398886	0.307126
12.819	12.6925	0.3978	0.301472
12.8194	12.692	0.396764	0.293239
12.8199	12.6915	0.398072	0.28855
12.8204	12.6911	0.397502	0.283856
12.8209	12.6906	0.397702	0.279909
12.8213	12.6901	0.397502	0.276508
12.8218	12.6897	0.396752	0.273549
12.8223	12.6892	0.398981	0.271043
12.8227	12.6887	0.398069	0.272704
12.8232	12.6883	0.398118	0.277225
12.8237	12.6878	0.395463	0.278789
12.8242	12.6873	0.396449	0.281011
12.8246	12.6868	0.395096	0.283646
12.8251	12.6864	0.396867	0.289485
12.8256	12.6859	0.39707	0.293617
12.8261	12.6854	0.394055	0.297987
12.8265	12.6849	0.395331	0.300609
12.827	12.6844	0.395646	0.302439
12.8275	12.684	0.394346	0.30773
12.8279	12.6835	0.393776	0.312802
12.8284	12.683	0.392842	0.31385
12.8289	12.6826	0.394444	0.315851
12.8294	12.6821	0.397598	0.319523
12.8298	12.6816	0.395963	0.322811
12.8303	12.6812	0.395552	0.326436
12.8308	12.6807	0.394956	0.3289
12.8312	12.6802	0.394309	0.329981
12.8317	12.6797	0.397091	0.333264
12.8322	12.6793	0.395952	0.337253
12.8327	12.6788	0.396658	0.339401
12.8331	12.6783	0.395164	0.33937
12.8336	12.6779	0.396195	0.339308
12.8341	12.6774	0.398421	0.339864
12.8346	12.6769	0.396083	0.341781
12.835	12.6764	0.396284	0.341849
12.8355	12.6759	0.396616	0.340315
12.836	12.6755	0.394805	0.339205
12.8364	12.675	0.396502	0.33812
12.8369	12.6745	0.395903	0.339681
12.8374	12.674	0.39477	0.33875
12.8379	12.6736	0.394204	0.33663
12.8383	12.6731	0.394287	0.33497
12.8388	12.6726	0.397596	0.333647
12.8393	12.6722	0.395064	0.333473
12.8397	12.6717	0.395649	0.331442
12.8402	12.6712	0.393442	0.329674
12.8407	12.6707	0.395039	0.325867
12.8412	12.6703	0.39634	0.324128
12.8416	12.6698	0.393944	0.322871
12.8421	12.6693	0.39472	0.322064
12.8426	12.6689	0.394704	0.317283
12.8431	12.6684	0.393059	0.314132
12.8435	12.668	0.396276	0.311778
12.844	12.6675	0.394145	0.311855
12.8445	12.667	0.394844	0.309661
12.8449	12.6665	0.395203	0.306145
12.8454	12.666	0.393818	0.301862
12.8459	12.6656	0.396462	0.298945
12.8464	12.6651	0.393909	0.299612
12.8468	12.6646	0.394318	0.295995
12.8473	12.6641	0.39315	0.293385
12.8478	12.6637	0.39167	0.290029
12.8482	12.6632	0.394106	0.288337
12.8487	12.6627	0.394418	0.288157
12.8492	12.6623	0.392912	0.286642
12.8497	12.6618	0.39289	0.282772
12.8501	12.6614	0.394264	0.280495
12.8506	12.6609	0.393677	0.278452
12.8511	12.6604	0.394471	0.279047
12.8516	12.6599	0.39377	0.277605
12.852	12.6595	0.392838	0.273981
12.8525	12.659	0.391807	0.270444
12.853	12.6585	0.392867	0.270487
12.8534	12.6581	0.391751	0.271365
12.8539	12.6576	0.392517	0.271354
12.8544	12.6571	0.39204	0.269674
12.8549	12.6566	0.390863	0.267811
12.8553	12.6561	0.392277	0.268876
12.8558	12.6557	0.391907	0.271683
12.8563	12.6552	0.39161	0.273653
12.8567	12.6547	0.392483	0.273741
12.8572	12.6542	0.390389	0.273371
12.8577	12.6538	0.393392	0.275853
12.8582	12.6533	0.392285	0.279035
12.8586	12.6528	0.392337	0.282529
12.8591	12.6524	0.391742	0.283798
12.8596	12.6519	0.393517	0.283447
12.8601	12.6514	0.393614	0.288205
12.8605	12.6509	0.393983	0.291475
12.861	12.6505	0.391078	0.293219
12.8615	12.65	0.392024	0.29458
12.8619	12.6495	0.391497	0.295455
12.8624	12.6491	0.392331	0.299726
12.8629	12.6486	0.390891	0.301079
12.8634	12.6481	0.390253	0.305604
12.8638	12.6476	0.391168	0.305716
12.8643	12.6472	0.388865	0.305252
12.8648	12.6467	0.388611	0.306882
12.8652	12.6462	0.388442	0.309571
12.8657	12.6457	0.388082	0.310805
12.8662	12.6452	0.387328	0.31056
12.8667	12.6448	0.386535	0.310052
12.8671	12.6443	0.388144	0.311692
12.8676	12.6438	0.38901	0.314017
12.8681	12.6433	0.38773	0.315495
12.8686	12.6429	0.388775	0.315723
12.869	12.6424	0.388509	0.316508
12.8695	12.642	0.389749	0.318245
12.87	12.6415	0.390795	0.318146
12.8704	12.641	0.390745	0.320012
12.8709	12.6405	0.389017	0.317569
12.8714	12.6401	0.389757	0.31611
12.8719	12.6396	0.391529	0.317199
12.8723	12.6391	0.388483	0.316983
12.8728	12.6387	0.388816	0.316577
12.8733	12.6382	0.389312	0.316267
12.8737	12.6377	0.389991	0.31428
12.8742	12.6373	0.391826	0.314561
12.8747	12.6368	0.38976	0.314582
12.8752	12.6363	0.388522	0.314863
12.8756	12.6358	0.38907	0.312425
12.8761	12.6354	0.386916	0.310124
12.8766	12.6349	0.386949	0.309775
12.8771	12.6344	0.390581	0.311116
12.8775	12.6339	0.387438	0.310221
12.878	12.6335	0.386875	0.308761
12.8785	12.633	0.388492	0.307743
12.8789	12.6325	0.389945	0.309717
12.8794	12.6321	0.388707	0.309762
12.8799	12.6316	0.387965	0.310041
12.8804	12.6311	0.386627	0.309123
12.8808	12.6306	0.388188	0.30766
12.8813	12.6302	0.387457	0.308786
12.8818	12.6297	0.388114	0.310671
12.8822	12.6292	0.385471	0.309744
12.8827	12.6288	0.386424	0.30951
12.8832	12.6283	0.38612	0.307813
12.8837	12.6278	0.386746	0.308921
12.8841	12.6274	0.386968	0.310494
12.8846	12.6269	0.386497	0.310032
12.8851	12.6264	0.38564	0.307182
12.8856	12.6259	0.387345	0.306899
12.886	12.6254	0.388992	0.308223
12.8865	12.625	0.387582	0.306983
12.887	12.6245	0.386544	0.305189
12.8874	12.624	0.385724	0.304071
12.8879	12.6235	0.385125	0.302078
12.8884	12.6231	0.384979	0.301702
12.8889	12.6226	0.387054	0.303016
12.8893	12.6221	0.383618	0.302382
12.8898	12.6217	0.384171	0.300755
12.8903	12.6212	0.384807	0.299109
12.8907	12.6207	0.386262	0.299526
12.8912	12.6202	0.384927	0.30145
12.8917	12.6197	0.383539	0.300215
12.8922	12.6193	0.383664	0.298191
12.8926	12.6188	0.384971	0.297092
12.8931	12.6184	0.38655	0.298747
12.8936	12.6179	0.384124	0.299694
12.8941	12.6174	0.383306	0.299579
12.8945	12.6169	0.383043	0.2976
12.895	12.6165	0.383776	0.296878
12.8955	12.616	0.387662	0.299797
12.8959	12.6155	0.387931	0.301788
12.8964	12.615	0.381621	0.298404
12.8969	12.6145	0.381884	0.295345
12.8974	12.6141	0.38395	0.295088
12.8978	12.6136	0.383997	0.296399
12.8983	12.6131	0.384022	0.295689
12.8988	12.6127	0.383498	0.296642
