# 1304     AichiSR QXAFS
# Start     : 8.9544
# End       : 9.0544
# Dir       : Forward
# Points    : 300
# ScanTime  : 1.01549
# Date      : 13.04.23 22:26
# Ring Cur. : 25.5[mA]
12.7557	12.7557	0.399863	1.21658
12.7562	12.7553	0.398748	1.2138
12.7566	12.7548	0.399349	1.21667
12.7571	12.7543	0.400821	1.2194
12.7576	12.7538	0.399873	1.21864
12.7581	12.7534	0.398137	1.21631
12.7585	12.7529	0.399683	1.2168
12.759	12.7524	0.400586	1.21586
12.7595	12.752	0.400028	1.21919
12.7599	12.7515	0.398902	1.22062
12.7604	12.751	0.399055	1.21645
12.7609	12.7506	0.400467	1.21511
12.7614	12.7501	0.398346	1.21519
12.7618	12.7496	0.399576	1.2167
12.7623	12.7492	0.397925	1.21516
12.7628	12.7487	0.399529	1.21484
12.7632	12.7482	0.400578	1.212
12.7637	12.7478	0.400623	1.21629
12.7642	12.7473	0.400906	1.21777
12.7647	12.7468	0.399924	1.21456
12.7651	12.7463	0.39853	1.21276
12.7656	12.7459	0.400113	1.21297
12.7661	12.7454	0.399758	1.21661
12.7666	12.7449	0.399828	1.21761
12.767	12.7444	0.399901	1.21824
12.7675	12.744	0.399151	1.2123
12.768	12.7435	0.401261	1.21459
12.7684	12.743	0.400691	1.21393
12.7689	12.7426	0.399501	1.21522
12.7694	12.7421	0.39957	1.21345
12.7699	12.7416	0.399962	1.21415
12.7703	12.7412	0.402212	1.21205
12.7708	12.7407	0.401911	1.21129
12.7713	12.7402	0.401786	1.21398
12.7717	12.7397	0.400685	1.21144
12.7722	12.7393	0.398284	1.20636
12.7727	12.7388	0.400106	1.20868
12.7732	12.7383	0.400436	1.21176
12.7736	12.7379	0.400658	1.20993
12.7741	12.7374	0.399406	1.20801
12.7746	12.7369	0.398473	1.20735
12.7751	12.7364	0.401819	1.20315
12.7755	12.7359	0.400009	1.20532
12.776	12.7355	0.400194	1.20551
12.7765	12.735	0.398305	1.20234
12.7769	12.7345	0.398312	1.19572
12.7774	12.734	0.400913	1.19858
12.7779	12.7335	0.398491	1.1983
12.7784	12.7331	0.399092	1.19666
12.7788	12.7326	0.39907	1.19498
12.7793	12.7321	0.400119	1.18986
12.7798	12.7317	0.399481	1.18551
12.7802	12.7312	0.39939	1.18841
12.7807	12.7307	0.401766	1.18738
12.7812	12.7302	0.398889	1.18193
12.7817	12.7298	0.399894	1.17415
12.7821	12.7293	0.402492	1.17248
12.7826	12.7288	0.39914	1.16808
12.7831	12.7284	0.398405	1.16019
12.7836	12.7279	0.398886	1.15334
12.784	12.7274	0.397086	1.13891
12.7845	12.727	0.398508	1.12635
12.785	12.7265	0.397596	1.11292
12.7854	12.726	0.397075	1.09223
12.7859	12.7255	0.395484	1.06006
12.7864	12.725	0.393295	1.01907
12.7869	12.7246	0.394631	0.973439
12.7873	12.7241	0.393838	0.924971
12.7878	12.7236	0.394898	0.862571
12.7883	12.7232	0.396324	0.798454
12.7887	12.7227	0.397141	0.741065
12.7892	12.7222	0.399756	0.693844
12.7897	12.7218	0.398384	0.658659
12.7902	12.7213	0.39775	0.639774
12.7906	12.7208	0.399973	0.624467
12.7911	12.7203	0.39716	0.615055
12.7916	12.7199	0.400357	0.618079
12.7921	12.7194	0.400805	0.621587
12.7925	12.719	0.398096	0.626375
12.793	12.7185	0.396094	0.628615
12.7935	12.718	0.396304	0.631681
12.7939	12.7176	0.400522	0.631959
12.7944	12.7171	0.396854	0.629396
12.7949	12.7166	0.398845	0.624883
12.7954	12.7161	0.398278	0.61552
12.7958	12.7156	0.396477	0.600564
12.7963	12.7152	0.399996	0.590307
12.7968	12.7147	0.397661	0.581479
12.7972	12.7142	0.398337	0.571464
12.7977	12.7137	0.396659	0.561859
12.7982	12.7133	0.395917	0.550265
12.7987	12.7128	0.39828	0.537444
12.7991	12.7123	0.398788	0.528622
12.7996	12.7119	0.397684	0.518951
12.8001	12.7114	0.396694	0.502289
12.8006	12.7109	0.396541	0.486334
12.801	12.7104	0.399276	0.475059
12.8015	12.71	0.3978	0.459735
12.802	12.7095	0.398426	0.444831
12.8024	12.709	0.396077	0.426374
12.8029	12.7086	0.39685	0.40856
12.8034	12.7081	0.39955	0.392232
12.8039	12.7076	0.397429	0.376837
12.8043	12.7071	0.398459	0.362101
12.8048	12.7067	0.397812	0.347663
12.8053	12.7062	0.39523	0.33136
12.8057	12.7057	0.398494	0.31984
12.8062	12.7052	0.397916	0.311033
12.8067	12.7047	0.397062	0.30201
12.8072	12.7043	0.397588	0.293776
12.8076	12.7038	0.396738	0.286146
12.8081	12.7033	0.398048	0.283146
12.8086	12.7028	0.396385	0.281409
12.8091	12.7024	0.397221	0.280598
12.8095	12.7019	0.39762	0.279248
12.81	12.7015	0.395296	0.27928
12.8105	12.701	0.39759	0.284459
12.8109	12.7005	0.395042	0.288073
12.8114	12.7	0.394915	0.294421
12.8119	12.6996	0.395798	0.2972
12.8124	12.6991	0.39537	0.299474
12.8128	12.6986	0.397207	0.306162
12.8133	12.6982	0.394517	0.310501
12.8138	12.6977	0.395124	0.315684
12.8142	12.6972	0.396225	0.317617
12.8147	12.6967	0.395133	0.31716
12.8152	12.6963	0.398378	0.320469
12.8157	12.6958	0.396984	0.323186
12.8161	12.6953	0.394593	0.321455
12.8166	12.6948	0.394781	0.319805
12.8171	12.6944	0.394882	0.315214
12.8176	12.6939	0.396787	0.312326
12.818	12.6934	0.395049	0.309757
12.8185	12.693	0.393683	0.303094
12.819	12.6925	0.394348	0.297819
12.8194	12.692	0.394593	0.29021
12.8199	12.6916	0.395593	0.286805
12.8204	12.6911	0.395404	0.282649
12.8209	12.6906	0.394259	0.277192
12.8213	12.6901	0.395006	0.273256
12.8218	12.6897	0.39658	0.271173
12.8223	12.6892	0.395215	0.269913
12.8227	12.6888	0.395939	0.271934
12.8232	12.6883	0.393544	0.273592
12.8237	12.6878	0.393665	0.275057
12.8242	12.6873	0.392446	0.278285
12.8246	12.6869	0.392386	0.281771
12.8251	12.6864	0.392044	0.287723
12.8256	12.6859	0.391087	0.291625
12.8261	12.6854	0.391083	0.293809
12.8265	12.6849	0.391543	0.297758
12.827	12.6845	0.392026	0.301039
12.8275	12.684	0.391746	0.306478
12.8279	12.6835	0.391625	0.310726
12.8284	12.683	0.391685	0.310466
12.8289	12.6826	0.391792	0.313208
12.8294	12.6821	0.393194	0.317411
12.8298	12.6817	0.392754	0.320989
12.8303	12.6812	0.391645	0.323874
12.8308	12.6807	0.39228	0.327401
12.8312	12.6802	0.39341	0.328929
12.8317	12.6797	0.393382	0.330733
12.8322	12.6793	0.392703	0.335587
12.8327	12.6788	0.392176	0.33634
12.8331	12.6784	0.392924	0.336512
12.8336	12.6779	0.392997	0.336253
12.8341	12.6774	0.394586	0.338268
12.8346	12.6769	0.393367	0.338771
12.835	12.6764	0.391291	0.340278
12.8355	12.676	0.392374	0.337544
12.836	12.6755	0.393033	0.336116
12.8364	12.675	0.39235	0.336574
12.8369	12.6745	0.395033	0.338524
12.8374	12.674	0.392283	0.335273
12.8379	12.6736	0.392255	0.333309
12.8383	12.6731	0.390654	0.329931
12.8388	12.6726	0.392561	0.330921
12.8393	12.6722	0.39351	0.33031
12.8397	12.6717	0.391626	0.329044
12.8402	12.6712	0.392884	0.326559
12.8407	12.6708	0.393579	0.323981
12.8412	12.6703	0.393152	0.322351
12.8416	12.6698	0.39488	0.321385
12.8421	12.6694	0.392073	0.319939
12.8426	12.6689	0.392335	0.315586
12.8431	12.6684	0.392824	0.311662
12.8435	12.668	0.392978	0.309937
12.844	12.6675	0.393312	0.309989
12.8445	12.667	0.390264	0.306114
12.8449	12.6665	0.390878	0.301855
12.8454	12.6661	0.393034	0.299321
12.8459	12.6656	0.392233	0.296885
12.8464	12.6651	0.393243	0.297269
12.8468	12.6646	0.389745	0.294119
12.8473	12.6642	0.391976	0.291335
12.8478	12.6637	0.390591	0.287582
12.8482	12.6632	0.392596	0.286937
12.8487	12.6628	0.392447	0.28702
12.8492	12.6623	0.390828	0.283428
12.8497	12.6618	0.389509	0.280883
12.8501	12.6614	0.389706	0.276952
12.8506	12.6609	0.390452	0.275256
12.8511	12.6604	0.391085	0.276527
12.8516	12.6599	0.388485	0.272954
12.852	12.6595	0.388981	0.269881
12.8525	12.659	0.388721	0.268842
12.853	12.6585	0.389886	0.269193
12.8534	12.6581	0.388337	0.269472
12.8539	12.6576	0.387961	0.266928
12.8544	12.6571	0.388102	0.266913
12.8549	12.6566	0.390583	0.266552
12.8553	12.6562	0.389385	0.267124
12.8558	12.6557	0.38965	0.270041
12.8563	12.6552	0.387504	0.269663
12.8567	12.6547	0.38758	0.270001
12.8572	12.6542	0.388806	0.270963
12.8577	12.6538	0.39096	0.274713
12.8582	12.6533	0.388666	0.277431
12.8586	12.6528	0.387326	0.279501
12.8591	12.6524	0.389901	0.28007
12.8596	12.6519	0.389179	0.28147
12.8601	12.6514	0.388575	0.283633
12.8605	12.651	0.387532	0.28923
12.861	12.6505	0.387585	0.290113
12.8615	12.65	0.385829	0.290429
12.8619	12.6495	0.388274	0.29243
12.8624	12.6491	0.387958	0.295665
12.8629	12.6486	0.388451	0.299455
12.8634	12.6481	0.385821	0.300276
12.8638	12.6477	0.386687	0.299979
12.8643	12.6472	0.385288	0.302823
12.8648	12.6467	0.386209	0.304267
12.8652	12.6462	0.384361	0.305862
12.8657	12.6457	0.383091	0.30607
12.8662	12.6453	0.381699	0.305095
12.8667	12.6448	0.384386	0.306336
12.8671	12.6443	0.383161	0.307759
12.8676	12.6438	0.383299	0.3113
12.8681	12.6434	0.38372	0.312852
12.8686	12.6429	0.383823	0.311185
12.869	12.6424	0.386047	0.311644
12.8695	12.642	0.387082	0.313866
12.87	12.6415	0.385469	0.315471
12.8704	12.641	0.384728	0.314582
12.8709	12.6406	0.384781	0.312568
12.8714	12.6401	0.386933	0.313
12.8719	12.6396	0.385693	0.314401
12.8723	12.6392	0.385536	0.314431
12.8728	12.6387	0.385229	0.313115
12.8733	12.6382	0.383294	0.310271
12.8737	12.6378	0.38669	0.31234
12.8742	12.6373	0.389159	0.312912
12.8747	12.6368	0.386696	0.311681
12.8752	12.6363	0.383784	0.310006
12.8756	12.6359	0.383037	0.307495
12.8761	12.6354	0.383577	0.30515
12.8766	12.6349	0.383819	0.307218
12.8771	12.6344	0.384732	0.307259
12.8775	12.634	0.384483	0.307206
12.878	12.6335	0.381225	0.30381
12.8785	12.633	0.383678	0.304865
12.8789	12.6326	0.384001	0.305935
12.8794	12.6321	0.383793	0.306713
12.8799	12.6316	0.382714	0.306112
12.8804	12.6311	0.382727	0.30494
12.8808	12.6307	0.384406	0.306139
12.8813	12.6302	0.383351	0.306249
12.8818	12.6297	0.384135	0.30771
12.8822	12.6293	0.382515	0.306317
12.8827	12.6288	0.382107	0.305155
12.8832	12.6283	0.385337	0.306789
12.8837	12.6279	0.383193	0.305539
12.8841	12.6274	0.383683	0.308461
12.8846	12.6269	0.382925	0.307877
12.8851	12.6264	0.382877	0.304427
12.8856	12.6259	0.385176	0.304671
12.886	12.6255	0.384041	0.306507
12.8865	12.625	0.38433	0.306425
12.887	12.6245	0.383363	0.304271
12.8874	12.624	0.382371	0.302374
12.8879	12.6235	0.38544	0.302153
12.8884	12.6231	0.384444	0.301286
12.8889	12.6226	0.38407	0.302005
12.8893	12.6221	0.383506	0.301676
12.8898	12.6217	0.384033	0.298702
12.8903	12.6212	0.385827	0.298023
12.8907	12.6207	0.385018	0.301021
12.8912	12.6202	0.384901	0.299981
12.8917	12.6198	0.384391	0.298542
12.8922	12.6193	0.383833	0.297326
12.8926	12.6188	0.384791	0.29836
12.8931	12.6184	0.384152	0.298246
12.8936	12.6179	0.385664	0.300389
12.8941	12.6174	0.387334	0.300195
12.8945	12.6169	0.383437	0.298069
12.895	12.6165	0.385382	0.298251
12.8955	12.616	0.385509	0.298815
12.8959	12.6155	0.385413	0.299631
12.8964	12.615	0.383397	0.298965
12.8969	12.6146	0.382621	0.297478
12.8974	12.6141	0.385827	0.296151
12.8978	12.6136	0.384867	0.296844
12.8983	12.6132	0.384845	0.297469
12.8988	12.6127	0.384434	0.296513
