# 1304     AichiSR QXAFS
# Start     : 8.9544
# End       : 9.0544
# Dir       : Backward
# Points    : 300
# ScanTime  : 1.01549
# Date      : 13.04.23 22:22
# Ring Cur. : 25.5[mA]
12.7557	12.6117	0.304103	0.233178
12.7562	12.6122	0.302076	0.23163
12.7566	12.6127	0.302413	0.231415
12.7571	12.6131	0.30532	0.233922
12.7576	12.6136	0.304257	0.233868
12.7581	12.6141	0.303694	0.236525
12.7585	12.6145	0.306115	0.238211
12.759	12.615	0.303246	0.236084
12.7595	12.6155	0.305146	0.23688
12.7599	12.616	0.30542	0.23782
12.7604	12.6164	0.304451	0.239379
12.7609	12.6169	0.303622	0.23592
12.7614	12.6174	0.303193	0.234499
12.7618	12.6179	0.307108	0.237325
12.7623	12.6183	0.302722	0.236316
12.7628	12.6188	0.304339	0.23913
12.7632	12.6193	0.305102	0.239425
12.7637	12.6197	0.304013	0.236527
12.7642	12.6202	0.304518	0.235723
12.7647	12.6207	0.305282	0.238423
12.7651	12.6212	0.305768	0.240354
12.7656	12.6217	0.30359	0.237032
12.7661	12.6221	0.304088	0.237739
12.7666	12.6226	0.309578	0.240178
12.767	12.623	0.310112	0.24257
12.7675	12.6235	0.304622	0.242359
12.768	12.624	0.306968	0.243035
12.7684	12.6245	0.305181	0.2413
12.7689	12.6249	0.306474	0.242903
12.7694	12.6254	0.305349	0.243106
12.7699	12.6259	0.30573	0.244206
12.7703	12.6264	0.303937	0.242728
12.7708	12.6269	0.304925	0.242945
12.7713	12.6273	0.306977	0.244754
12.7717	12.6278	0.303918	0.244211
12.7722	12.6283	0.304156	0.246382
12.7727	12.6288	0.305165	0.247099
12.7732	12.6292	0.305443	0.245331
12.7736	12.6297	0.307872	0.245298
12.7741	12.6302	0.307139	0.246539
12.7746	12.6306	0.307134	0.246407
12.7751	12.6311	0.302976	0.245187
12.7755	12.6316	0.307213	0.244723
12.776	12.6321	0.308603	0.24402
12.7765	12.6325	0.305962	0.243918
12.7769	12.633	0.306959	0.245995
12.7774	12.6334	0.307781	0.246368
12.7779	12.6339	0.307554	0.244415
12.7784	12.6344	0.309407	0.244864
12.7788	12.6349	0.308938	0.247344
12.7793	12.6353	0.308458	0.248182
12.7798	12.6358	0.308398	0.249664
12.7802	12.6363	0.310715	0.24979
12.7807	12.6368	0.31049	0.248962
12.7812	12.6372	0.30862	0.249414
12.7817	12.6377	0.310249	0.251842
12.7821	12.6382	0.309802	0.251092
12.7826	12.6387	0.309985	0.251557
12.7831	12.6391	0.31031	0.250672
12.7836	12.6396	0.309275	0.251749
12.784	12.64	0.308365	0.252992
12.7845	12.6405	0.311022	0.253623
12.785	12.641	0.31082	0.253345
12.7854	12.6415	0.313038	0.254448
12.7859	12.6419	0.310486	0.254532
12.7864	12.6424	0.31163	0.256761
12.7869	12.6428	0.313624	0.255481
12.7873	12.6433	0.310186	0.253212
12.7878	12.6438	0.310882	0.252111
12.7883	12.6443	0.311077	0.252098
12.7887	12.6447	0.311431	0.252963
12.7892	12.6452	0.308202	0.249577
12.7897	12.6457	0.309577	0.247606
12.7902	12.6462	0.310887	0.248338
12.7906	12.6467	0.309064	0.248867
12.7911	12.6471	0.310373	0.248277
12.7916	12.6476	0.311863	0.247052
12.7921	12.6481	0.311663	0.245046
12.7925	12.6486	0.314355	0.243211
12.793	12.649	0.315809	0.244667
12.7935	12.6495	0.313967	0.243561
12.7939	12.65	0.31377	0.240021
12.7944	12.6504	0.31562	0.23798
12.7949	12.6509	0.318394	0.236844
12.7954	12.6514	0.315247	0.234671
12.7958	12.6519	0.314676	0.23469
12.7963	12.6523	0.315291	0.232085
12.7968	12.6528	0.314007	0.228927
12.7972	12.6533	0.315164	0.226272
12.7977	12.6537	0.317364	0.227092
12.7982	12.6542	0.316208	0.225733
12.7987	12.6547	0.316361	0.223391
12.7991	12.6552	0.316883	0.222026
12.7996	12.6557	0.319638	0.221822
12.8001	12.6561	0.317422	0.220839
12.8006	12.6566	0.318181	0.220929
12.801	12.6571	0.31865	0.219477
12.8015	12.6576	0.317433	0.218085
12.802	12.658	0.318083	0.218662
12.8024	12.6585	0.317267	0.220414
12.8029	12.659	0.316222	0.220721
12.8034	12.6594	0.317725	0.221108
12.8039	12.6599	0.316539	0.218961
12.8043	12.6604	0.318317	0.222338
12.8048	12.6608	0.316702	0.224424
12.8053	12.6613	0.320071	0.227578
12.8057	12.6618	0.319897	0.22941
12.8062	12.6623	0.318463	0.229098
12.8067	12.6627	0.320875	0.231212
12.8072	12.6632	0.320803	0.234821
12.8076	12.6636	0.319999	0.235592
12.8081	12.6641	0.319925	0.236014
12.8086	12.6646	0.321057	0.238085
12.8091	12.6651	0.321036	0.238627
12.8095	12.6655	0.319515	0.242318
12.81	12.666	0.319612	0.243823
12.8105	12.6665	0.319123	0.244439
12.8109	12.667	0.319552	0.245388
12.8114	12.6675	0.321278	0.248965
12.8119	12.6679	0.322541	0.252708
12.8124	12.6684	0.320173	0.254589
12.8128	12.6689	0.320391	0.255834
12.8133	12.6693	0.323235	0.25737
12.8138	12.6698	0.324024	0.262067
12.8142	12.6702	0.321604	0.263497
12.8147	12.6707	0.320319	0.264872
12.8152	12.6712	0.324379	0.268343
12.8157	12.6717	0.322009	0.266172
12.8161	12.6721	0.321008	0.268606
12.8166	12.6726	0.324285	0.272644
12.8171	12.6731	0.322209	0.274226
12.8176	12.6735	0.319636	0.27225
12.818	12.674	0.320872	0.274008
12.8185	12.6745	0.325005	0.276228
12.819	12.675	0.320624	0.276554
12.8194	12.6754	0.322488	0.278981
12.8199	12.6759	0.323719	0.278723
12.8204	12.6764	0.323555	0.277178
12.8209	12.6769	0.322547	0.277961
12.8213	12.6774	0.324625	0.281159
12.8218	12.6778	0.322664	0.280347
12.8223	12.6783	0.321451	0.277818
12.8227	12.6788	0.323664	0.27799
12.8232	12.6793	0.324555	0.277908
12.8237	12.6797	0.324273	0.276433
12.8242	12.6802	0.322241	0.276112
12.8246	12.6807	0.324106	0.274142
12.8251	12.6811	0.324483	0.26971
12.8256	12.6816	0.323841	0.268746
12.8261	12.6821	0.323212	0.267883
12.8265	12.6826	0.322929	0.265653
12.827	12.683	0.321579	0.260155
12.8275	12.6835	0.32398	0.259022
12.8279	12.684	0.323734	0.256051
12.8284	12.6844	0.322243	0.254406
12.8289	12.6849	0.322994	0.251556
12.8294	12.6854	0.324868	0.248133
12.8298	12.6859	0.323712	0.244697
12.8303	12.6864	0.324611	0.242634
12.8308	12.6868	0.325385	0.241594
12.8312	12.6873	0.322181	0.237489
12.8317	12.6878	0.322973	0.231428
12.8322	12.6883	0.325041	0.228781
12.8327	12.6887	0.324222	0.226349
12.8331	12.6892	0.326639	0.226154
12.8336	12.6896	0.324179	0.22427
12.8341	12.6901	0.32632	0.223108
12.8346	12.6906	0.32486	0.224097
12.835	12.6911	0.326022	0.227513
12.8355	12.6915	0.326973	0.232569
12.836	12.692	0.324443	0.235987
12.8364	12.6925	0.324741	0.237491
12.8369	12.6929	0.325943	0.242536
12.8374	12.6934	0.32557	0.24721
12.8379	12.6939	0.325808	0.253242
12.8383	12.6943	0.324753	0.258095
12.8388	12.6948	0.3262	0.260115
12.8393	12.6953	0.32445	0.260381
12.8397	12.6958	0.324871	0.263141
12.8402	12.6962	0.326254	0.265919
12.8407	12.6967	0.324264	0.264469
12.8412	12.6972	0.322391	0.261563
12.8416	12.6977	0.325626	0.26173
12.8421	12.6981	0.326075	0.260028
12.8426	12.6986	0.323735	0.256253
12.8431	12.6991	0.324306	0.254363
12.8435	12.6995	0.325828	0.250254
12.844	12.7	0.324414	0.245277
12.8445	12.7005	0.324953	0.241133
12.8449	12.7009	0.326846	0.240195
12.8454	12.7014	0.324897	0.236907
12.8459	12.7019	0.323301	0.230918
12.8464	12.7024	0.326056	0.229414
12.8468	12.7028	0.326547	0.2291
12.8473	12.7033	0.324687	0.229968
12.8478	12.7038	0.325555	0.23156
12.8482	12.7042	0.325403	0.23403
12.8487	12.7047	0.324919	0.235911
12.8492	12.7052	0.323977	0.243217
12.8497	12.7057	0.328257	0.252885
12.8501	12.7062	0.325853	0.260035
12.8506	12.7066	0.325685	0.267284
12.8511	12.7071	0.327075	0.278486
12.8516	12.7076	0.327657	0.291704
12.852	12.7081	0.327034	0.304041
12.8525	12.7085	0.325923	0.31765
12.853	12.709	0.325622	0.327951
12.8534	12.7095	0.3266	0.343051
12.8539	12.7099	0.326952	0.35901
12.8544	12.7104	0.327267	0.373569
12.8549	12.7109	0.329071	0.387713
12.8553	12.7114	0.326701	0.397015
12.8558	12.7118	0.32788	0.409273
12.8563	12.7123	0.328142	0.420586
12.8567	12.7128	0.328839	0.432671
12.8572	12.7132	0.327867	0.443271
12.8577	12.7137	0.327389	0.449036
12.8582	12.7142	0.32795	0.455524
12.8586	12.7147	0.327601	0.464207
12.8591	12.7151	0.327733	0.474132
12.8596	12.7156	0.326002	0.484131
12.8601	12.7161	0.324848	0.487463
12.8605	12.7166	0.326936	0.499558
12.861	12.717	0.32699	0.50947
12.8615	12.7175	0.325481	0.514612
12.8619	12.718	0.325924	0.520803
12.8624	12.7185	0.327806	0.519923
12.8629	12.7189	0.327623	0.515503
12.8634	12.7194	0.326429	0.513877
12.8638	12.7198	0.326699	0.512736
12.8643	12.7203	0.326014	0.510575
12.8648	12.7208	0.324734	0.502008
12.8652	12.7213	0.326827	0.506741
12.8657	12.7217	0.326948	0.514125
12.8662	12.7222	0.323799	0.524813
12.8667	12.7227	0.325084	0.55115
12.8671	12.7231	0.325394	0.584267
12.8676	12.7236	0.324548	0.622154
12.8681	12.7241	0.321205	0.670971
12.8686	12.7245	0.324525	0.7272
12.869	12.725	0.321651	0.775549
12.8695	12.7255	0.320461	0.813226
12.87	12.726	0.324956	0.854017
12.8704	12.7264	0.324912	0.882516
12.8709	12.7269	0.323965	0.897594
12.8714	12.7274	0.326128	0.917729
12.8719	12.7279	0.326954	0.927748
12.8723	12.7283	0.324508	0.931092
12.8728	12.7288	0.324681	0.94104
12.8733	12.7293	0.326464	0.955572
12.8737	12.7297	0.325801	0.95486
12.8742	12.7302	0.323201	0.950673
12.8747	12.7307	0.328496	0.96452
12.8752	12.7312	0.327652	0.968352
12.8756	12.7317	0.325756	0.963332
12.8761	12.7321	0.32625	0.971252
12.8766	12.7326	0.326345	0.976655
12.8771	12.7331	0.327966	0.975377
12.8775	12.7335	0.325951	0.975561
12.878	12.734	0.326778	0.982774
12.8785	12.7345	0.325637	0.980404
12.8789	12.735	0.325614	0.977762
12.8794	12.7354	0.328605	0.984138
12.8799	12.7359	0.326726	0.983552
12.8804	12.7364	0.325865	0.985081
12.8808	12.7369	0.327952	0.9911
12.8813	12.7374	0.326608	0.987825
12.8818	12.7378	0.327412	0.988021
12.8822	12.7383	0.328599	0.990066
12.8827	12.7388	0.328944	0.994335
12.8832	12.7392	0.327566	0.994613
12.8837	12.7397	0.328359	0.991464
12.8841	12.7402	0.330844	0.991979
12.8846	12.7407	0.328329	0.994197
12.8851	12.7411	0.327863	0.995557
12.8856	12.7416	0.327387	0.995564
12.886	12.7421	0.328186	0.995596
12.8865	12.7425	0.328922	0.998283
12.887	12.743	0.328906	0.995365
12.8874	12.7435	0.328072	0.999526
12.8879	12.7439	0.328246	0.997531
12.8884	12.7444	0.327217	0.995203
12.8889	12.7449	0.330703	0.996589
12.8893	12.7454	0.329555	0.997516
12.8898	12.7458	0.327961	1.0014
12.8903	12.7463	0.329006	1.0021
12.8907	12.7468	0.330213	1.003
12.8912	12.7473	0.330662	1.00144
12.8917	12.7478	0.329203	1.00227
12.8922	12.7482	0.328546	1.00659
12.8926	12.7487	0.328132	1.0019
12.8931	12.7492	0.327757	0.998929
12.8936	12.7496	0.331514	1.00462
12.8941	12.7501	0.330878	1.00618
12.8945	12.7505	0.328445	1.00432
12.895	12.751	0.328697	1.00142
12.8955	12.7515	0.329046	1.00437
12.8959	12.752	0.329998	1.00226
12.8964	12.7524	0.330347	1.00285
12.8969	12.7529	0.329541	1.00918
12.8974	12.7533	0.328086	1.00227
12.8978	12.7538	0.327108	0.996852
12.8983	12.7543	0.330912	1.00596
12.8988	12.7548	0.329862	1.00661
