# 1304     AichiSR QXAFS
# Start     : 8.9544
# End       : 9.0544
# Dir       : Backward
# Points    : 300
# ScanTime  : 1.01549
# Date      : 13.04.23 22:29
# Ring Cur. : 25.5[mA]
12.7557	12.6118	0.300288	0.229166
12.7562	12.6123	0.300082	0.229268
12.7566	12.6127	0.300479	0.22975
12.7571	12.6132	0.298874	0.231594
12.7576	12.6136	0.300538	0.231185
12.7581	12.6141	0.301527	0.232311
12.7585	12.6146	0.302314	0.234554
12.759	12.6151	0.300419	0.235384
12.7595	12.6155	0.299854	0.235193
12.7599	12.616	0.301619	0.235009
12.7604	12.6165	0.301788	0.233164
12.7609	12.617	0.301518	0.234905
12.7614	12.6175	0.300292	0.234967
12.7618	12.6179	0.300983	0.236595
12.7623	12.6184	0.300537	0.232936
12.7628	12.6189	0.301008	0.233818
12.7632	12.6193	0.302075	0.235847
12.7637	12.6198	0.304621	0.237778
12.7642	12.6203	0.301634	0.235483
12.7647	12.6207	0.302416	0.234317
12.7651	12.6212	0.304807	0.234958
12.7656	12.6217	0.301321	0.23504
12.7661	12.6222	0.303732	0.238494
12.7666	12.6226	0.301393	0.238305
12.767	12.6231	0.302501	0.237082
12.7675	12.6236	0.301695	0.236475
12.768	12.624	0.30439	0.23936
12.7684	12.6245	0.301881	0.239526
12.7689	12.625	0.298387	0.239508
12.7694	12.6255	0.301831	0.239068
12.7699	12.626	0.302547	0.239665
12.7703	12.6264	0.301495	0.241481
12.7708	12.6269	0.3008	0.242306
12.7713	12.6274	0.303475	0.245212
12.7717	12.6279	0.3016	0.241403
12.7722	12.6284	0.304522	0.241451
12.7727	12.6288	0.304952	0.244031
12.7732	12.6293	0.303927	0.244334
12.7736	12.6297	0.302776	0.243585
12.7741	12.6302	0.301649	0.242508
12.7746	12.6307	0.305114	0.242049
12.7751	12.6312	0.301505	0.241227
12.7755	12.6316	0.304064	0.243726
12.776	12.6321	0.302154	0.244077
12.7765	12.6326	0.301779	0.242239
12.7769	12.633	0.30436	0.240973
12.7774	12.6335	0.303556	0.242306
12.7779	12.634	0.303681	0.243502
12.7784	12.6344	0.302851	0.244188
12.7788	12.6349	0.304583	0.242808
12.7793	12.6354	0.30529	0.242707
12.7798	12.6359	0.303039	0.24384
12.7802	12.6363	0.306399	0.245416
12.7807	12.6368	0.303625	0.246034
12.7812	12.6373	0.30114	0.243093
12.7817	12.6378	0.304832	0.244931
12.7821	12.6382	0.304322	0.245525
12.7826	12.6387	0.306128	0.249343
12.7831	12.6392	0.30268	0.247904
12.7836	12.6396	0.305634	0.247912
12.784	12.6401	0.305404	0.247635
12.7845	12.6406	0.305685	0.249551
12.785	12.641	0.30685	0.251076
12.7854	12.6415	0.305411	0.249661
12.7859	12.642	0.304242	0.248603
12.7864	12.6425	0.306823	0.248666
12.7869	12.6429	0.305118	0.249232
12.7873	12.6434	0.3044	0.249254
12.7878	12.6438	0.303243	0.246531
12.7883	12.6443	0.302592	0.246173
12.7887	12.6448	0.304219	0.245525
12.7892	12.6453	0.301451	0.24299
12.7897	12.6458	0.302305	0.244708
12.7902	12.6462	0.302296	0.243743
12.7906	12.6467	0.303194	0.241278
12.7911	12.6472	0.305595	0.241632
12.7916	12.6477	0.305323	0.24253
12.7921	12.6482	0.305931	0.240544
12.7925	12.6486	0.305773	0.23886
12.793	12.6491	0.305356	0.235863
12.7935	12.6496	0.30753	0.235421
12.7939	12.65	0.305766	0.233583
12.7944	12.6505	0.304832	0.233096
12.7949	12.651	0.305032	0.2303
12.7954	12.6515	0.304583	0.226615
12.7958	12.6519	0.306607	0.224896
12.7963	12.6524	0.307403	0.224918
12.7968	12.6529	0.305309	0.223654
12.7972	12.6533	0.305968	0.222074
12.7977	12.6538	0.306742	0.219207
12.7982	12.6543	0.30999	0.218488
12.7987	12.6548	0.308389	0.218066
12.7991	12.6552	0.307154	0.216976
12.7996	12.6557	0.306577	0.215158
12.8001	12.6562	0.307828	0.212841
12.8006	12.6567	0.307074	0.211894
12.801	12.6571	0.308476	0.212792
12.8015	12.6576	0.307137	0.213186
12.802	12.6581	0.305518	0.212051
12.8024	12.6586	0.305347	0.211393
12.8029	12.659	0.310023	0.214595
12.8034	12.6595	0.310181	0.216305
12.8039	12.66	0.307431	0.215172
12.8043	12.6604	0.30801	0.216953
12.8048	12.6609	0.309345	0.216906
12.8053	12.6614	0.310943	0.218798
12.8057	12.6619	0.310797	0.220986
12.8062	12.6623	0.308989	0.223705
12.8067	12.6628	0.308609	0.224282
12.8072	12.6632	0.308911	0.223639
12.8076	12.6637	0.309579	0.225771
12.8081	12.6642	0.309065	0.228287
12.8086	12.6647	0.308037	0.231064
12.8091	12.6651	0.308442	0.231481
12.8095	12.6656	0.307271	0.231864
12.81	12.6661	0.309796	0.234077
12.8105	12.6666	0.311173	0.23795
12.8109	12.667	0.310071	0.239992
12.8114	12.6675	0.309281	0.241531
12.8119	12.668	0.309583	0.243093
12.8124	12.6685	0.313349	0.246265
12.8128	12.6689	0.312559	0.249179
12.8133	12.6694	0.311091	0.251621
12.8138	12.6698	0.310406	0.252442
12.8142	12.6703	0.310305	0.253235
12.8147	12.6708	0.312811	0.256001
12.8152	12.6713	0.312268	0.257071
12.8157	12.6717	0.311682	0.258243
12.8161	12.6722	0.309659	0.259322
12.8166	12.6727	0.311746	0.262204
12.8171	12.6731	0.313441	0.26283
12.8176	12.6736	0.311257	0.264328
12.818	12.6741	0.313161	0.268558
12.8185	12.6745	0.315306	0.268734
12.819	12.675	0.311025	0.265784
12.8194	12.6755	0.313288	0.269256
12.8199	12.676	0.315651	0.272988
12.8204	12.6765	0.313776	0.272525
12.8209	12.677	0.311818	0.270573
12.8213	12.6774	0.313555	0.270242
12.8218	12.6779	0.31503	0.270164
12.8223	12.6784	0.31308	0.271807
12.8227	12.6788	0.313016	0.271289
12.8232	12.6793	0.313745	0.2702
12.8237	12.6798	0.312806	0.267698
12.8242	12.6802	0.316477	0.267469
12.8246	12.6807	0.316372	0.266548
12.8251	12.6812	0.315476	0.264982
12.8256	12.6817	0.316156	0.261455
12.8261	12.6821	0.316025	0.258308
12.8265	12.6826	0.31678	0.257493
12.827	12.6831	0.314847	0.254161
12.8275	12.6835	0.316577	0.253991
12.8279	12.684	0.314657	0.24915
12.8284	12.6845	0.31255	0.245434
12.8289	12.685	0.315788	0.244663
12.8294	12.6855	0.315672	0.243679
12.8298	12.6859	0.315287	0.240918
12.8303	12.6864	0.314103	0.23579
12.8308	12.6869	0.31765	0.232449
12.8312	12.6874	0.319902	0.230336
12.8317	12.6879	0.318548	0.228503
12.8322	12.6883	0.317654	0.22605
12.8327	12.6888	0.318011	0.221352
12.8331	12.6893	0.319103	0.219514
12.8336	12.6897	0.318854	0.217666
12.8341	12.6902	0.319364	0.220554
12.8346	12.6906	0.317668	0.221561
12.835	12.6911	0.317654	0.222092
12.8355	12.6916	0.317917	0.225399
12.836	12.6921	0.319612	0.228394
12.8364	12.6925	0.318504	0.234065
12.8369	12.693	0.320018	0.241322
12.8374	12.6934	0.318343	0.243822
12.8379	12.6939	0.318239	0.246497
12.8383	12.6944	0.319973	0.251114
12.8388	12.6949	0.320957	0.2571
12.8393	12.6953	0.319235	0.25914
12.8397	12.6958	0.317802	0.258274
12.8402	12.6963	0.319698	0.259967
12.8407	12.6968	0.318929	0.257488
12.8412	12.6972	0.317773	0.258134
12.8416	12.6977	0.318579	0.258064
12.8421	12.6982	0.319776	0.256082
12.8426	12.6987	0.316149	0.249371
12.8431	12.6991	0.320336	0.249013
12.8435	12.6996	0.320591	0.246505
12.844	12.7	0.318968	0.242704
12.8445	12.7005	0.318765	0.237032
12.8449	12.701	0.318993	0.233337
12.8454	12.7015	0.320475	0.231468
12.8459	12.7019	0.318458	0.228465
12.8464	12.7024	0.319703	0.228349
12.8468	12.7029	0.319188	0.22461
12.8473	12.7033	0.316824	0.223105
12.8478	12.7038	0.320984	0.224696
12.8482	12.7043	0.322128	0.231053
12.8487	12.7048	0.320491	0.23596
12.8492	12.7053	0.3184	0.238275
12.8497	12.7057	0.320136	0.246495
12.8501	12.7062	0.321685	0.254996
12.8506	12.7067	0.32067	0.26456
12.8511	12.7072	0.321617	0.27545
12.8516	12.7077	0.322669	0.287648
12.852	12.7081	0.322312	0.296791
12.8525	12.7086	0.321411	0.310811
12.853	12.7091	0.323825	0.327788
12.8534	12.7095	0.321153	0.340583
12.8539	12.71	0.321525	0.352391
12.8544	12.7105	0.323355	0.365977
12.8549	12.711	0.323102	0.378207
12.8553	12.7114	0.322491	0.392593
12.8558	12.7119	0.323392	0.406149
12.8563	12.7124	0.323614	0.416761
12.8567	12.7128	0.322568	0.422485
12.8572	12.7133	0.323317	0.434066
12.8577	12.7138	0.324507	0.446018
12.8582	12.7142	0.322234	0.452639
12.8586	12.7147	0.322022	0.457355
12.8591	12.7152	0.323378	0.467019
12.8596	12.7157	0.323319	0.476994
12.8601	12.7162	0.322802	0.48576
12.8605	12.7166	0.321139	0.494734
12.861	12.7171	0.322493	0.500603
12.8615	12.7176	0.32206	0.506011
12.8619	12.7181	0.322994	0.51374
12.8624	12.7185	0.32237	0.51426
12.8629	12.719	0.320153	0.512834
12.8634	12.7194	0.321943	0.505594
12.8638	12.7199	0.323482	0.504897
12.8643	12.7204	0.32224	0.499235
12.8648	12.7209	0.321228	0.497543
12.8652	12.7213	0.321841	0.501958
12.8657	12.7218	0.322013	0.508881
12.8662	12.7223	0.319521	0.517696
12.8667	12.7227	0.321195	0.542543
12.8671	12.7232	0.321664	0.577411
12.8676	12.7236	0.320345	0.617049
12.8681	12.7241	0.318266	0.66239
12.8686	12.7246	0.318707	0.717023
12.869	12.7251	0.318746	0.765714
12.8695	12.7256	0.31791	0.808481
12.87	12.726	0.317517	0.844925
12.8704	12.7265	0.318429	0.867641
12.8709	12.727	0.319051	0.885437
12.8714	12.7275	0.321291	0.904837
12.8719	12.7279	0.321977	0.919109
12.8723	12.7284	0.320418	0.927194
12.8728	12.7289	0.320279	0.929539
12.8733	12.7293	0.321135	0.937768
12.8737	12.7298	0.322309	0.941606
12.8742	12.7303	0.320642	0.942961
12.8747	12.7307	0.322215	0.954114
12.8752	12.7312	0.323904	0.956788
12.8756	12.7317	0.321226	0.952045
12.8761	12.7322	0.32309	0.957066
12.8766	12.7326	0.32393	0.965743
12.8771	12.7331	0.320848	0.964587
12.8775	12.7336	0.32092	0.960564
12.878	12.7341	0.324219	0.967976
12.8785	12.7345	0.323313	0.970404
12.8789	12.735	0.321179	0.963825
12.8794	12.7355	0.321238	0.97053
12.8799	12.736	0.32319	0.971616
12.8804	12.7365	0.32281	0.971565
12.8808	12.7369	0.321992	0.970007
12.8813	12.7374	0.324058	0.979598
12.8818	12.7379	0.323627	0.979982
12.8822	12.7384	0.32166	0.97337
12.8827	12.7388	0.325249	0.980865
12.8832	12.7393	0.324878	0.981104
12.8837	12.7398	0.32278	0.979412
12.8841	12.7402	0.323472	0.984365
12.8846	12.7407	0.324245	0.983759
12.8851	12.7412	0.322229	0.975966
12.8856	12.7417	0.324867	0.980837
12.886	12.7421	0.32575	0.985754
12.8865	12.7426	0.322859	0.983857
12.887	12.7431	0.323311	0.980902
12.8874	12.7435	0.326131	0.984892
12.8879	12.744	0.325645	0.986813
12.8884	12.7445	0.323643	0.98284
12.8889	12.7449	0.324651	0.991878
12.8893	12.7454	0.325385	0.991357
12.8898	12.7459	0.325937	0.987014
12.8903	12.7464	0.325712	0.989326
12.8907	12.7469	0.326491	0.993601
12.8912	12.7473	0.324908	0.992324
12.8917	12.7478	0.324478	0.988183
12.8922	12.7483	0.32766	0.993875
12.8926	12.7487	0.326421	0.994398
12.8931	12.7492	0.325509	0.990134
12.8936	12.7497	0.324834	0.992511
12.8941	12.7501	0.32423	0.992992
12.8945	12.7506	0.327197	0.99083
12.895	12.7511	0.32618	0.995675
12.8955	12.7516	0.328683	0.998277
12.8959	12.752	0.323994	0.994683
12.8964	12.7525	0.326712	0.992275
12.8969	12.7529	0.327954	0.998664
12.8974	12.7534	0.326199	0.992604
12.8978	12.7539	0.324194	0.991562
12.8983	12.7543	0.325755	0.996178
12.8988	12.7548	0.326151	0.996365
