# 1304     AichiSR QXAFS
# Start     : 8.9544
# End       : 9.0544
# Dir       : Forward
# Points    : 300
# ScanTime  : 1.01549
# Date      : 13.04.23 22:24
# Ring Cur. : 25.5[mA]
12.7557	12.7557	0.403861	1.2294
12.7562	12.7552	0.402011	1.22711
12.7566	12.7548	0.402474	1.22562
12.7571	12.7543	0.403323	1.22544
12.7576	12.7538	0.403164	1.22777
12.7581	12.7533	0.402915	1.22552
12.7585	12.7529	0.401705	1.22541
12.759	12.7524	0.401936	1.22463
12.7595	12.752	0.401384	1.22283
12.7599	12.7515	0.402561	1.22814
12.7604	12.751	0.401775	1.22725
12.7609	12.7505	0.401593	1.22397
12.7614	12.7501	0.399657	1.22181
12.7618	12.7496	0.402997	1.22093
12.7623	12.7491	0.402163	1.22013
12.7628	12.7487	0.400517	1.22489
12.7632	12.7482	0.402464	1.22285
12.7637	12.7478	0.400384	1.22059
12.7642	12.7473	0.400844	1.22025
12.7647	12.7468	0.400142	1.22334
12.7651	12.7463	0.400726	1.22412
12.7656	12.7459	0.401296	1.22169
12.7661	12.7454	0.399845	1.2202
12.7666	12.7449	0.402278	1.21808
12.767	12.7444	0.402379	1.21834
12.7675	12.7439	0.400877	1.21778
12.768	12.7435	0.401359	1.21489
12.7684	12.743	0.399469	1.211
12.7689	12.7425	0.400837	1.21361
12.7694	12.7421	0.400809	1.21607
12.7699	12.7416	0.40062	1.21575
12.7703	12.7411	0.400539	1.21361
12.7708	12.7407	0.399703	1.21216
12.7713	12.7402	0.401524	1.21162
12.7717	12.7397	0.402149	1.21474
12.7722	12.7392	0.399841	1.21116
12.7727	12.7388	0.400575	1.2091
12.7732	12.7383	0.398276	1.20747
12.7736	12.7379	0.401178	1.20547
12.7741	12.7374	0.399844	1.20861
12.7746	12.7369	0.39958	1.20764
12.7751	12.7364	0.399226	1.20628
12.7755	12.7359	0.398822	1.20449
12.776	12.7354	0.401875	1.20372
12.7765	12.735	0.398617	1.20316
12.7769	12.7345	0.397747	1.2014
12.7774	12.734	0.399717	1.19811
12.7779	12.7335	0.398033	1.19457
12.7784	12.7331	0.401835	1.19272
12.7788	12.7326	0.400074	1.19675
12.7793	12.7321	0.399158	1.19251
12.7798	12.7317	0.397817	1.1865
12.7802	12.7312	0.398472	1.18218
12.7807	12.7307	0.399659	1.18267
12.7812	12.7302	0.399904	1.17728
12.7817	12.7298	0.397211	1.17456
12.7821	12.7293	0.397678	1.17092
12.7826	12.7288	0.397146	1.1613
12.7831	12.7284	0.398355	1.15491
12.7836	12.7279	0.396273	1.14758
12.784	12.7274	0.396906	1.14347
12.7845	12.7269	0.397385	1.12464
12.785	12.7265	0.395523	1.11055
12.7854	12.726	0.395512	1.08709
12.7859	12.7255	0.39483	1.06175
12.7864	12.725	0.391688	1.02322
12.7869	12.7246	0.392526	0.975263
12.7873	12.7241	0.391635	0.918663
12.7878	12.7236	0.394392	0.858376
12.7883	12.7231	0.394422	0.79962
12.7887	12.7227	0.395659	0.745948
12.7892	12.7222	0.396251	0.693782
12.7897	12.7218	0.397876	0.658479
12.7902	12.7213	0.39873	0.636101
12.7906	12.7208	0.395959	0.622888
12.7911	12.7203	0.397468	0.615398
12.7916	12.7199	0.397057	0.612716
12.7921	12.7194	0.396976	0.616399
12.7925	12.7189	0.39651	0.62169
12.793	12.7185	0.39649	0.626792
12.7935	12.718	0.395636	0.63023
12.7939	12.7175	0.394933	0.629232
12.7944	12.7171	0.396699	0.626338
12.7949	12.7166	0.396644	0.620598
12.7954	12.7161	0.396665	0.613894
12.7958	12.7156	0.395463	0.601505
12.7963	12.7151	0.395743	0.587366
12.7968	12.7147	0.395009	0.577013
12.7972	12.7142	0.396743	0.566464
12.7977	12.7137	0.395901	0.55845
12.7982	12.7132	0.395076	0.548469
12.7987	12.7128	0.394834	0.537104
12.7991	12.7123	0.395967	0.525607
12.7996	12.7119	0.397356	0.514809
12.8001	12.7114	0.395848	0.50282
12.8006	12.7109	0.394095	0.48794
12.801	12.7104	0.395125	0.47114
12.8015	12.71	0.395711	0.457181
12.802	12.7095	0.394418	0.440869
12.8024	12.709	0.395325	0.425925
12.8029	12.7086	0.393441	0.408595
12.8034	12.7081	0.394947	0.390561
12.8039	12.7076	0.396579	0.37416
12.8043	12.7071	0.394692	0.359076
12.8048	12.7067	0.394238	0.346446
12.8053	12.7062	0.394043	0.332517
12.8057	12.7057	0.394712	0.319142
12.8062	12.7052	0.394681	0.308485
12.8067	12.7047	0.394827	0.298775
12.8072	12.7042	0.395389	0.292763
12.8076	12.7038	0.393446	0.285728
12.8081	12.7033	0.392259	0.279391
12.8086	12.7028	0.395069	0.277148
12.8091	12.7024	0.394106	0.277954
12.8095	12.7019	0.393661	0.278071
12.81	12.7014	0.391751	0.279559
12.8105	12.701	0.392407	0.282324
12.8109	12.7005	0.392791	0.284907
12.8114	12.7	0.393771	0.289557
12.8119	12.6995	0.393547	0.295558
12.8124	12.6991	0.390731	0.298448
12.8128	12.6986	0.391998	0.301606
12.8133	12.6982	0.39283	0.306604
12.8138	12.6977	0.391309	0.3103
12.8142	12.6972	0.391647	0.314987
12.8147	12.6967	0.391036	0.316439
12.8152	12.6963	0.391506	0.317322
12.8157	12.6958	0.392008	0.31593
12.8161	12.6953	0.392798	0.317541
12.8166	12.6948	0.391499	0.317432
12.8171	12.6943	0.390093	0.314185
12.8176	12.6939	0.389272	0.309058
12.818	12.6934	0.392079	0.304789
12.8185	12.6929	0.39201	0.300686
12.819	12.6925	0.390405	0.296691
12.8194	12.692	0.38926	0.290433
12.8199	12.6916	0.390338	0.282832
12.8204	12.6911	0.392934	0.279036
12.8209	12.6906	0.395007	0.278337
12.8213	12.6901	0.39406	0.273813
12.8218	12.6897	0.390969	0.269535
12.8223	12.6892	0.388736	0.26818
12.8227	12.6887	0.390495	0.266939
12.8232	12.6883	0.390274	0.27078
12.8237	12.6878	0.390621	0.273635
12.8242	12.6873	0.387684	0.275559
12.8246	12.6868	0.387837	0.278726
12.8251	12.6864	0.389661	0.283115
12.8256	12.6859	0.388704	0.289087
12.8261	12.6854	0.387496	0.292438
12.8265	12.6849	0.388548	0.295338
12.827	12.6844	0.387017	0.298752
12.8275	12.684	0.389402	0.301859
12.8279	12.6835	0.38868	0.304976
12.8284	12.683	0.388338	0.309925
12.8289	12.6826	0.387401	0.31193
12.8294	12.6821	0.387831	0.312054
12.8298	12.6816	0.388829	0.316632
12.8303	12.6812	0.389708	0.320534
12.8308	12.6807	0.389281	0.324674
12.8312	12.6802	0.388491	0.326979
12.8317	12.6797	0.388554	0.328133
12.8322	12.6793	0.390149	0.330975
12.8327	12.6788	0.39098	0.335317
12.8331	12.6783	0.39034	0.337132
12.8336	12.6779	0.389329	0.336871
12.8341	12.6774	0.390062	0.337163
12.8346	12.6769	0.391677	0.336372
12.835	12.6764	0.391836	0.338068
12.8355	12.6759	0.38982	0.339105
12.836	12.6755	0.389957	0.337408
12.8364	12.675	0.39007	0.334388
12.8369	12.6745	0.391799	0.335296
12.8374	12.674	0.3926	0.334157
12.8379	12.6736	0.391274	0.334271
12.8383	12.6731	0.389774	0.332121
12.8388	12.6726	0.392594	0.330077
12.8393	12.6722	0.393825	0.330106
12.8397	12.6717	0.391753	0.329073
12.8402	12.6712	0.393252	0.328141
12.8407	12.6707	0.392701	0.326575
12.8412	12.6703	0.391255	0.322873
12.8416	12.6698	0.393968	0.320135
12.8421	12.6693	0.394014	0.318769
12.8426	12.6689	0.391226	0.31783
12.8431	12.6684	0.391984	0.313942
12.8435	12.668	0.390418	0.309417
12.844	12.6675	0.394413	0.30828
12.8445	12.667	0.391598	0.308132
12.8449	12.6665	0.392924	0.304702
12.8454	12.6661	0.391941	0.300839
12.8459	12.6656	0.391152	0.296407
12.8464	12.6651	0.394101	0.296587
12.8468	12.6646	0.393178	0.295163
12.8473	12.6641	0.392566	0.293322
12.8478	12.6637	0.392224	0.292314
12.8482	12.6632	0.39256	0.287022
12.8487	12.6627	0.393093	0.287134
12.8492	12.6623	0.393947	0.285882
12.8497	12.6618	0.392885	0.283871
12.8501	12.6614	0.392156	0.280835
12.8506	12.6609	0.392265	0.277246
12.8511	12.6604	0.393694	0.275731
12.8516	12.6599	0.394185	0.275648
12.852	12.6595	0.391552	0.274381
12.8525	12.659	0.391189	0.272079
12.853	12.6585	0.391577	0.271117
12.8534	12.6581	0.39307	0.269684
12.8539	12.6576	0.393354	0.271472
12.8544	12.6571	0.3939	0.271799
12.8549	12.6566	0.392692	0.270857
12.8553	12.6562	0.391572	0.270243
12.8558	12.6557	0.3945	0.271069
12.8563	12.6552	0.391071	0.274441
12.8567	12.6547	0.390661	0.273587
12.8572	12.6542	0.391697	0.275792
12.8577	12.6538	0.392421	0.275292
12.8582	12.6533	0.394705	0.278725
12.8586	12.6528	0.395278	0.282193
12.8591	12.6524	0.393434	0.284449
12.8596	12.6519	0.392446	0.285503
12.8601	12.6514	0.391429	0.286243
12.8605	12.6509	0.394919	0.29011
12.861	12.6505	0.394213	0.294216
12.8615	12.65	0.393342	0.297029
12.8619	12.6495	0.39359	0.297623
12.8624	12.6491	0.393331	0.299012
12.8629	12.6486	0.392851	0.301867
12.8634	12.6481	0.392054	0.304822
12.8638	12.6476	0.391192	0.306621
12.8643	12.6472	0.391814	0.307727
12.8648	12.6467	0.389849	0.307868
12.8652	12.6462	0.389275	0.309013
12.8657	12.6457	0.389189	0.311382
12.8662	12.6452	0.388077	0.312559
12.8667	12.6448	0.388815	0.312073
12.8671	12.6443	0.389949	0.313955
12.8676	12.6438	0.391458	0.315672
12.8681	12.6433	0.392851	0.318897
12.8686	12.6429	0.391077	0.31962
12.869	12.6424	0.390919	0.318504
12.8695	12.642	0.391106	0.318256
12.87	12.6415	0.393741	0.319788
12.8704	12.641	0.393424	0.321629
12.8709	12.6405	0.392677	0.32175
12.8714	12.6401	0.392541	0.319427
12.8719	12.6396	0.393376	0.318449
12.8723	12.6391	0.393199	0.319709
12.8728	12.6387	0.392527	0.318184
12.8733	12.6382	0.392507	0.31948
12.8737	12.6377	0.392784	0.316757
12.8742	12.6373	0.392842	0.314896
12.8747	12.6368	0.392697	0.316599
12.8752	12.6363	0.392918	0.316009
12.8756	12.6358	0.391516	0.315661
12.8761	12.6354	0.391678	0.312816
12.8766	12.6349	0.391376	0.312989
12.8771	12.6344	0.392295	0.312502
12.8775	12.6339	0.393319	0.314051
12.878	12.6335	0.389783	0.313606
12.8785	12.633	0.392254	0.311203
12.8789	12.6325	0.392214	0.309348
12.8794	12.6321	0.39151	0.312853
12.8799	12.6316	0.39337	0.313519
12.8804	12.6311	0.392114	0.31388
12.8808	12.6306	0.391695	0.310802
12.8813	12.6302	0.393152	0.312014
12.8818	12.6297	0.392281	0.311546
12.8822	12.6292	0.391791	0.314877
12.8827	12.6288	0.392499	0.313915
12.8832	12.6283	0.390737	0.3132
12.8837	12.6278	0.391156	0.311556
12.8841	12.6274	0.390334	0.312914
12.8846	12.6269	0.392402	0.315295
12.8851	12.6264	0.390115	0.313001
12.8856	12.6259	0.390392	0.311438
12.886	12.6254	0.391869	0.309759
12.8865	12.625	0.391361	0.309071
12.887	12.6245	0.391925	0.310678
12.8874	12.624	0.390868	0.31029
12.8879	12.6235	0.390375	0.307707
12.8884	12.6231	0.391214	0.304814
12.8889	12.6226	0.391787	0.305858
12.8893	12.6221	0.392494	0.307571
12.8898	12.6217	0.390062	0.30691
12.8903	12.6212	0.3885	0.302609
12.8907	12.6207	0.390729	0.302616
12.8912	12.6202	0.390741	0.303164
12.8917	12.6198	0.389939	0.303849
12.8922	12.6193	0.387774	0.30429
12.8926	12.6188	0.389308	0.302266
12.8931	12.6184	0.389777	0.301399
12.8936	12.6179	0.388584	0.302098
12.8941	12.6174	0.389517	0.305622
12.8945	12.6169	0.388614	0.304394
12.895	12.6165	0.389671	0.30117
12.8955	12.616	0.389737	0.301386
12.8959	12.6155	0.389519	0.302467
12.8964	12.615	0.388453	0.303806
12.8969	12.6145	0.388406	0.301886
12.8974	12.6141	0.388206	0.300649
12.8978	12.6136	0.388902	0.300197
12.8983	12.6131	0.390503	0.299476
12.8988	12.6127	0.388889	0.301041
