# 1304     AichiSR QXAFS
# Start     : 8.9544
# End       : 9.0544
# Dir       : Forward
# Points    : 300
# ScanTime  : 1.01549
# Date      : 13.04.23 22:20
# Ring Cur. : 25.6[mA]
12.7557	12.7557	0.401299	1.22043
12.7562	12.7552	0.400419	1.22232
12.7566	12.7548	0.401479	1.22523
12.7571	12.7543	0.399834	1.22362
12.7576	12.7538	0.400935	1.22008
12.7581	12.7533	0.400532	1.22056
12.7585	12.7529	0.401781	1.22047
12.759	12.7524	0.401586	1.22394
12.7595	12.752	0.400616	1.22313
12.7599	12.7515	0.398896	1.22244
12.7604	12.751	0.399768	1.22123
12.7609	12.7505	0.401467	1.22048
12.7614	12.7501	0.402568	1.22307
12.7618	12.7496	0.400575	1.2222
12.7623	12.7491	0.399362	1.21791
12.7628	12.7487	0.401168	1.21794
12.7632	12.7482	0.40076	1.21562
12.7637	12.7477	0.401415	1.21887
12.7642	12.7473	0.399255	1.21944
12.7647	12.7468	0.399282	1.21545
12.7651	12.7463	0.399999	1.21826
12.7656	12.7458	0.400068	1.21444
12.7661	12.7454	0.401302	1.21815
12.7666	12.7449	0.399086	1.2149
12.767	12.7444	0.400098	1.2137
12.7675	12.7439	0.399956	1.20979
12.768	12.7435	0.399977	1.21233
12.7684	12.743	0.400702	1.21436
12.7689	12.7425	0.398354	1.21164
12.7694	12.7421	0.399279	1.20904
12.7699	12.7416	0.400015	1.21
12.7703	12.7411	0.400178	1.2096
12.7708	12.7406	0.401806	1.21206
12.7713	12.7402	0.398035	1.21202
12.7717	12.7397	0.399152	1.20647
12.7722	12.7392	0.399277	1.20541
12.7727	12.7388	0.399663	1.20867
12.7732	12.7383	0.399239	1.20614
12.7736	12.7378	0.397782	1.20486
12.7741	12.7374	0.398388	1.20148
12.7746	12.7369	0.397583	1.20175
12.7751	12.7364	0.399872	1.20162
12.7755	12.7359	0.399846	1.20348
12.776	12.7354	0.398293	1.20084
12.7765	12.7349	0.398273	1.19327
12.7769	12.7345	0.399236	1.1965
12.7774	12.734	0.397566	1.19284
12.7779	12.7335	0.39802	1.19358
12.7784	12.733	0.395358	1.19092
12.7788	12.7326	0.39633	1.1841
12.7793	12.7321	0.398012	1.18458
12.7798	12.7317	0.398074	1.18349
12.7802	12.7312	0.398303	1.18059
12.7807	12.7307	0.396243	1.17802
12.7812	12.7302	0.395983	1.16978
12.7817	12.7297	0.396653	1.16455
12.7821	12.7293	0.397036	1.16165
12.7826	12.7288	0.397169	1.15906
12.7831	12.7284	0.395089	1.1528
12.7836	12.7279	0.394799	1.14002
12.784	12.7274	0.395464	1.13307
12.7845	12.7269	0.394829	1.11943
12.785	12.7265	0.394932	1.10121
12.7854	12.726	0.393691	1.0796
12.7859	12.7255	0.390766	1.0441
12.7864	12.725	0.391016	1.00419
12.7869	12.7245	0.390172	0.960766
12.7873	12.7241	0.390113	0.90953
12.7878	12.7236	0.39046	0.8455
12.7883	12.7231	0.390632	0.782321
12.7887	12.7227	0.395666	0.729209
12.7892	12.7222	0.396412	0.686269
12.7897	12.7217	0.39474	0.651436
12.7902	12.7213	0.393399	0.629902
12.7906	12.7208	0.394244	0.616783
12.7911	12.7203	0.395889	0.611014
12.7916	12.7199	0.394962	0.613354
12.7921	12.7194	0.393887	0.615342
12.7925	12.7189	0.393242	0.619508
12.793	12.7185	0.3933	0.619685
12.7935	12.718	0.394665	0.623887
12.7939	12.7175	0.393225	0.624874
12.7944	12.7171	0.393751	0.622208
12.7949	12.7166	0.392709	0.615697
12.7954	12.7161	0.392582	0.603848
12.7958	12.7156	0.396042	0.592201
12.7963	12.7151	0.394092	0.582737
12.7968	12.7147	0.394735	0.574575
12.7972	12.7142	0.393258	0.561335
12.7977	12.7137	0.391395	0.54932
12.7982	12.7132	0.393028	0.541756
12.7987	12.7128	0.393307	0.530138
12.7991	12.7123	0.391544	0.521248
12.7996	12.7118	0.393005	0.508511
12.8001	12.7114	0.391901	0.492209
12.8006	12.7109	0.39373	0.478493
12.801	12.7104	0.392281	0.46897
12.8015	12.7099	0.392254	0.451744
12.802	12.7095	0.393298	0.435517
12.8024	12.709	0.391591	0.416999
12.8029	12.7085	0.392134	0.400457
12.8034	12.7081	0.391388	0.384131
12.8039	12.7076	0.391043	0.370023
12.8043	12.7071	0.391392	0.354923
12.8048	12.7066	0.38922	0.339147
12.8053	12.7062	0.390645	0.324767
12.8057	12.7057	0.392694	0.316528
12.8062	12.7052	0.392544	0.306761
12.8067	12.7047	0.390891	0.297228
12.8072	12.7042	0.390038	0.286241
12.8076	12.7038	0.394346	0.283908
12.8081	12.7033	0.395075	0.281462
12.8086	12.7028	0.392185	0.277724
12.8091	12.7024	0.390764	0.275455
12.8095	12.7019	0.389334	0.274
12.81	12.7014	0.39239	0.277546
12.8105	12.7009	0.391348	0.281531
12.8109	12.7005	0.390408	0.285852
12.8114	12.7	0.389494	0.288578
12.8119	12.6995	0.388142	0.292116
12.8124	12.6991	0.391889	0.297404
12.8128	12.6986	0.39011	0.30228
12.8133	12.6981	0.390178	0.307003
12.8138	12.6977	0.389306	0.309397
12.8142	12.6972	0.389384	0.311201
12.8147	12.6967	0.391815	0.313535
12.8152	12.6962	0.391398	0.315897
12.8157	12.6958	0.390774	0.317605
12.8161	12.6953	0.390379	0.31618
12.8166	12.6948	0.388538	0.3134
12.8171	12.6943	0.39134	0.311712
12.8176	12.6939	0.391371	0.309202
12.818	12.6934	0.390137	0.305747
12.8185	12.6929	0.388852	0.300082
12.819	12.6925	0.389531	0.291676
12.8194	12.692	0.390697	0.287803
12.8199	12.6915	0.391248	0.284691
12.8204	12.6911	0.391099	0.279752
12.8209	12.6906	0.387974	0.27505
12.8213	12.6901	0.391152	0.269455
12.8218	12.6897	0.391755	0.26869
12.8223	12.6892	0.390776	0.269662
12.8227	12.6887	0.390553	0.269976
12.8232	12.6883	0.390529	0.27203
12.8237	12.6878	0.389712	0.272735
12.8242	12.6873	0.391481	0.276986
12.8246	12.6868	0.390796	0.281737
12.8251	12.6864	0.390672	0.286632
12.8256	12.6859	0.392308	0.290373
12.8261	12.6854	0.388518	0.292211
12.8265	12.6849	0.38967	0.297248
12.827	12.6844	0.38983	0.300741
12.8275	12.684	0.389523	0.305225
12.8279	12.6835	0.389482	0.30719
12.8284	12.683	0.389493	0.309104
12.8289	12.6826	0.390693	0.312583
12.8294	12.6821	0.390728	0.316641
12.8298	12.6816	0.39095	0.32151
12.8303	12.6811	0.391216	0.32332
12.8308	12.6807	0.39108	0.325382
12.8312	12.6802	0.394307	0.329052
12.8317	12.6797	0.393679	0.332521
12.8322	12.6793	0.391467	0.334401
12.8327	12.6788	0.392481	0.336919
12.8331	12.6783	0.392138	0.336246
12.8336	12.6779	0.393036	0.337381
12.8341	12.6774	0.394004	0.338422
12.8346	12.6769	0.391921	0.340156
12.835	12.6764	0.391258	0.337856
12.8355	12.6759	0.392727	0.336186
12.836	12.6755	0.393775	0.338825
12.8364	12.675	0.393774	0.336649
12.8369	12.6745	0.393707	0.337534
12.8374	12.674	0.392393	0.335836
12.8379	12.6735	0.393614	0.334061
12.8383	12.6731	0.39365	0.332826
12.8388	12.6726	0.394487	0.333151
12.8393	12.6722	0.393707	0.332089
12.8397	12.6717	0.392645	0.328811
12.8402	12.6712	0.392761	0.324952
12.8407	12.6707	0.394014	0.324656
12.8412	12.6703	0.394135	0.323828
12.8416	12.6698	0.39323	0.322345
12.8421	12.6693	0.393191	0.319469
12.8426	12.6689	0.393208	0.314919
12.8431	12.6684	0.394897	0.312611
12.8435	12.6679	0.393139	0.31281
12.844	12.6675	0.393519	0.310477
12.8445	12.667	0.39232	0.306593
12.8449	12.6665	0.394223	0.303542
12.8454	12.666	0.396206	0.301929
12.8459	12.6656	0.39385	0.300618
12.8464	12.6651	0.392986	0.297737
12.8468	12.6646	0.39286	0.295603
12.8473	12.6641	0.393736	0.291376
12.8478	12.6637	0.393603	0.289169
12.8482	12.6632	0.393488	0.289078
12.8487	12.6627	0.392944	0.286811
12.8492	12.6623	0.391529	0.283922
12.8497	12.6618	0.392891	0.281361
12.8501	12.6613	0.395288	0.280175
12.8506	12.6609	0.393708	0.28054
12.8511	12.6604	0.391733	0.278358
12.8516	12.6599	0.392439	0.274176
12.852	12.6594	0.391913	0.273723
12.8525	12.659	0.39348	0.271831
12.853	12.6585	0.39376	0.272271
12.8534	12.6581	0.391746	0.272432
12.8539	12.6576	0.391157	0.269174
12.8544	12.6571	0.392992	0.268763
12.8549	12.6566	0.393266	0.269108
12.8553	12.6561	0.393119	0.270999
12.8558	12.6557	0.391246	0.272741
12.8563	12.6552	0.393614	0.272598
12.8567	12.6547	0.393421	0.273581
12.8572	12.6542	0.393136	0.275733
12.8577	12.6537	0.395267	0.278927
12.8582	12.6533	0.394462	0.28029
12.8586	12.6528	0.393543	0.281467
12.8591	12.6524	0.39336	0.283134
12.8596	12.6519	0.394293	0.286599
12.8601	12.6514	0.393202	0.289353
12.8605	12.6509	0.39292	0.291598
12.861	12.6504	0.393062	0.292796
12.8615	12.65	0.391047	0.294878
12.8619	12.6495	0.39223	0.297444
12.8624	12.649	0.393125	0.301693
12.8629	12.6486	0.391026	0.303072
12.8634	12.6481	0.391148	0.304968
12.8638	12.6476	0.39192	0.305129
12.8643	12.6471	0.391365	0.306179
12.8648	12.6467	0.389794	0.31003
12.8652	12.6462	0.389991	0.31138
12.8657	12.6457	0.388101	0.309707
12.8662	12.6452	0.389839	0.311303
12.8667	12.6448	0.388786	0.312466
12.8671	12.6443	0.390114	0.316205
12.8676	12.6438	0.389809	0.316709
12.8681	12.6433	0.390814	0.31512
12.8686	12.6429	0.390491	0.317203
12.869	12.6424	0.391568	0.318421
12.8695	12.6419	0.391671	0.320028
12.87	12.6415	0.390875	0.32083
12.8704	12.641	0.3931	0.319701
12.8709	12.6405	0.392471	0.317241
12.8714	12.6401	0.391179	0.318357
12.8719	12.6396	0.392155	0.321443
12.8723	12.6391	0.39141	0.318491
12.8728	12.6387	0.390902	0.316379
12.8733	12.6382	0.392328	0.316351
12.8737	12.6377	0.392468	0.315684
12.8742	12.6373	0.392976	0.316278
12.8747	12.6368	0.390314	0.315144
12.8752	12.6363	0.390743	0.313737
12.8756	12.6358	0.391286	0.312044
12.8761	12.6354	0.38946	0.312787
12.8766	12.6349	0.391576	0.314293
12.8771	12.6344	0.391503	0.313426
12.8775	12.6339	0.389082	0.311152
12.878	12.6335	0.390477	0.310003
12.8785	12.633	0.390204	0.311205
12.8789	12.6325	0.391303	0.31156
12.8794	12.6321	0.390212	0.311279
12.8799	12.6316	0.389326	0.310908
12.8804	12.6311	0.39147	0.309066
12.8808	12.6306	0.390898	0.310694
12.8813	12.6302	0.390051	0.311924
12.8818	12.6297	0.39021	0.313337
12.8822	12.6292	0.389723	0.310745
12.8827	12.6288	0.390605	0.310776
12.8832	12.6283	0.388594	0.3119
12.8837	12.6278	0.390123	0.312271
12.8841	12.6273	0.387779	0.312345
12.8846	12.6269	0.389216	0.310255
12.8851	12.6264	0.389693	0.309303
12.8856	12.6259	0.389938	0.309716
12.886	12.6254	0.38964	0.310059
12.8865	12.6249	0.388022	0.310166
12.887	12.6245	0.388588	0.306761
12.8874	12.624	0.389255	0.307429
12.8879	12.6235	0.389506	0.305343
12.8884	12.6231	0.38828	0.305301
12.8889	12.6226	0.387208	0.306481
12.8893	12.6221	0.389391	0.304319
12.8898	12.6217	0.387114	0.301639
12.8903	12.6212	0.386827	0.301614
12.8907	12.6207	0.388173	0.303259
12.8912	12.6202	0.387036	0.302568
12.8917	12.6197	0.387803	0.299436
12.8922	12.6193	0.386963	0.301556
12.8926	12.6188	0.388326	0.30084
12.8931	12.6184	0.388441	0.302116
12.8936	12.6179	0.387149	0.301736
12.8941	12.6174	0.387854	0.300994
12.8945	12.6169	0.386961	0.300197
12.895	12.6164	0.385981	0.300072
12.8955	12.616	0.389021	0.301699
12.8959	12.6155	0.385307	0.300197
12.8964	12.615	0.385509	0.300324
12.8969	12.6145	0.386638	0.298447
12.8974	12.6141	0.385361	0.298421
12.8978	12.6136	0.385853	0.299301
12.8983	12.6131	0.384948	0.296736
12.8988	12.6127	0.386703	0.296357
