# 1304     AichiSR QXAFS
# Start     : 8.9544
# End       : 9.0544
# Dir       : Forward
# Points    : 300
# ScanTime  : 1.01549
# Date      : 13.04.23 22:32
# Ring Cur. : 25.6[mA]
12.7557	12.7558	0.403218	1.22841
12.7562	12.7553	0.403059	1.22853
12.7566	12.7548	0.403716	1.23219
12.7571	12.7544	0.402354	1.23148
12.7576	12.7539	0.403265	1.2268
12.7581	12.7534	0.403836	1.22496
12.7585	12.753	0.403343	1.227
12.759	12.7525	0.402994	1.22682
12.7595	12.752	0.401718	1.23129
12.7599	12.7516	0.401879	1.22683
12.7604	12.7511	0.404334	1.22514
12.7609	12.7506	0.403405	1.22975
12.7614	12.7501	0.403449	1.23276
12.7618	12.7497	0.404121	1.22778
12.7623	12.7492	0.403696	1.22704
12.7628	12.7488	0.403913	1.23013
12.7632	12.7483	0.40514	1.23316
12.7637	12.7478	0.403783	1.22995
12.7642	12.7473	0.404229	1.23056
12.7647	12.7469	0.403576	1.22704
12.7651	12.7464	0.405251	1.2238
12.7656	12.7459	0.404936	1.22711
12.7661	12.7454	0.404119	1.22974
12.7666	12.745	0.404952	1.2297
12.767	12.7445	0.403578	1.22517
12.7675	12.744	0.403969	1.22806
12.768	12.7435	0.405376	1.22947
12.7684	12.7431	0.405282	1.23216
12.7689	12.7426	0.403222	1.22875
12.7694	12.7421	0.403753	1.22434
12.7699	12.7417	0.405561	1.22541
12.7703	12.7412	0.403277	1.22732
12.7708	12.7407	0.404454	1.23033
12.7713	12.7402	0.405651	1.22434
12.7717	12.7398	0.404084	1.22151
12.7722	12.7393	0.405818	1.22295
12.7727	12.7388	0.406898	1.22494
12.7732	12.7384	0.405021	1.22249
12.7736	12.7379	0.404384	1.22394
12.7741	12.7374	0.403899	1.21979
12.7746	12.737	0.404559	1.21781
12.7751	12.7365	0.403695	1.21996
12.7755	12.736	0.404491	1.22289
12.776	12.7355	0.403683	1.2171
12.7765	12.735	0.404212	1.21409
12.7769	12.7345	0.405214	1.21443
12.7774	12.7341	0.404182	1.21525
12.7779	12.7336	0.404472	1.21483
12.7784	12.7331	0.403564	1.21029
12.7788	12.7327	0.401986	1.20806
12.7793	12.7322	0.406328	1.20732
12.7798	12.7317	0.404036	1.20502
12.7802	12.7313	0.403737	1.2047
12.7807	12.7308	0.403402	1.19742
12.7812	12.7303	0.403481	1.19166
12.7817	12.7298	0.404368	1.18992
12.7821	12.7294	0.404987	1.18666
12.7826	12.7289	0.402845	1.18548
12.7831	12.7284	0.403493	1.17608
12.7836	12.728	0.403685	1.16574
12.784	12.7275	0.404785	1.15802
12.7845	12.727	0.403023	1.14941
12.785	12.7265	0.402143	1.13593
12.7854	12.7261	0.401525	1.1158
12.7859	12.7256	0.400471	1.07886
12.7864	12.7251	0.398717	1.04407
12.7869	12.7246	0.39738	1.00599
12.7873	12.7241	0.396349	0.951555
12.7878	12.7237	0.398781	0.888678
12.7883	12.7232	0.401768	0.822442
12.7887	12.7227	0.405427	0.76538
12.7892	12.7223	0.402512	0.714182
12.7897	12.7218	0.403377	0.675761
12.7902	12.7214	0.404468	0.65009
12.7906	12.7209	0.403024	0.630968
12.7911	12.7204	0.405201	0.625872
12.7916	12.7199	0.404152	0.623716
12.7921	12.7195	0.404595	0.628116
12.7925	12.719	0.402555	0.63155
12.793	12.7185	0.402742	0.635059
12.7935	12.7181	0.404607	0.642917
12.7939	12.7176	0.404691	0.641304
12.7944	12.7171	0.403173	0.642247
12.7949	12.7166	0.40368	0.635656
12.7954	12.7162	0.401734	0.624817
12.7958	12.7157	0.403767	0.614298
12.7963	12.7152	0.403861	0.603672
12.7968	12.7147	0.401731	0.593383
12.7972	12.7143	0.403944	0.580188
12.7977	12.7138	0.403511	0.569206
12.7982	12.7133	0.404857	0.561332
12.7987	12.7128	0.402866	0.552713
12.7991	12.7124	0.403497	0.541116
12.7996	12.7119	0.403691	0.527821
12.8001	12.7115	0.404319	0.515778
12.8006	12.711	0.404113	0.49821
12.801	12.7105	0.403782	0.486439
12.8015	12.71	0.402418	0.472407
12.802	12.7095	0.401576	0.454117
12.8024	12.7091	0.403429	0.433648
12.8029	12.7086	0.405582	0.418715
12.8034	12.7082	0.404738	0.403846
12.8039	12.7077	0.402602	0.387427
12.8043	12.7072	0.40216	0.3709
12.8048	12.7067	0.402628	0.355343
12.8053	12.7062	0.404072	0.340025
12.8057	12.7058	0.402372	0.330167
12.8062	12.7053	0.400795	0.318423
12.8067	12.7048	0.401212	0.307478
12.8072	12.7043	0.402624	0.297548
12.8076	12.7038	0.403818	0.29206
12.8081	12.7034	0.401751	0.287976
12.8086	12.7029	0.400465	0.285364
12.8091	12.7024	0.402143	0.282177
12.8095	12.702	0.401854	0.281573
12.81	12.7015	0.402614	0.283792
12.8105	12.701	0.402385	0.288353
12.8109	12.7005	0.399734	0.292741
12.8114	12.7001	0.401171	0.296111
12.8119	12.6996	0.403019	0.298595
12.8124	12.6991	0.403832	0.304039
12.8128	12.6987	0.401986	0.310042
12.8133	12.6982	0.400071	0.314287
12.8138	12.6978	0.401466	0.317298
12.8142	12.6973	0.402583	0.320319
12.8147	12.6968	0.402953	0.322422
12.8152	12.6963	0.403003	0.326388
12.8157	12.6959	0.39965	0.32774
12.8161	12.6954	0.400936	0.325404
12.8166	12.6949	0.40162	0.323844
12.8171	12.6944	0.401577	0.320466
12.8176	12.6939	0.401453	0.319438
12.818	12.6935	0.399216	0.315685
12.8185	12.693	0.402098	0.309261
12.819	12.6925	0.400956	0.302245
12.8194	12.6921	0.402195	0.297241
12.8199	12.6916	0.402289	0.293321
12.8204	12.6911	0.399665	0.288244
12.8209	12.6907	0.400213	0.280779
12.8213	12.6902	0.399568	0.277265
12.8218	12.6897	0.401072	0.275447
12.8223	12.6893	0.402283	0.276134
12.8227	12.6888	0.400123	0.27561
12.8232	12.6883	0.399817	0.27559
12.8237	12.6879	0.399182	0.277389
12.8242	12.6874	0.39827	0.28077
12.8246	12.6869	0.399385	0.286792
12.8251	12.6864	0.396599	0.290858
12.8256	12.686	0.398026	0.294113
12.8261	12.6855	0.398615	0.296246
12.8265	12.685	0.399707	0.303469
12.827	12.6845	0.398332	0.30759
12.8275	12.684	0.395636	0.309137
12.8279	12.6836	0.396909	0.311945
12.8284	12.6831	0.396863	0.314117
12.8289	12.6826	0.39764	0.317948
12.8294	12.6822	0.397531	0.320903
12.8298	12.6817	0.396234	0.32518
12.8303	12.6812	0.396343	0.326437
12.8308	12.6807	0.399014	0.330747
12.8312	12.6803	0.398739	0.333518
12.8317	12.6798	0.399786	0.338185
12.8322	12.6793	0.398573	0.340034
12.8327	12.6789	0.398591	0.340972
12.8331	12.6784	0.400098	0.340834
12.8336	12.6779	0.399844	0.342497
12.8341	12.6775	0.399721	0.344931
12.8346	12.677	0.398116	0.344507
12.835	12.6765	0.397219	0.343539
12.8355	12.676	0.399668	0.342942
12.836	12.6755	0.397417	0.343651
12.8364	12.675	0.399513	0.342868
12.8369	12.6746	0.397638	0.342302
12.8374	12.6741	0.397978	0.340931
12.8379	12.6736	0.399728	0.339876
12.8383	12.6731	0.398499	0.340049
12.8388	12.6727	0.397634	0.33816
12.8393	12.6722	0.398106	0.335783
12.8397	12.6718	0.397217	0.33257
12.8402	12.6713	0.398537	0.331503
12.8407	12.6708	0.397918	0.330674
12.8412	12.6703	0.397373	0.329213
12.8416	12.6699	0.396492	0.326235
12.8421	12.6694	0.397389	0.321696
12.8426	12.6689	0.398857	0.320844
12.8431	12.6685	0.396763	0.317942
12.8435	12.668	0.397862	0.316326
12.844	12.6675	0.39744	0.314927
12.8445	12.6671	0.396229	0.309157
12.8449	12.6666	0.397716	0.306363
12.8454	12.6661	0.396624	0.305438
12.8459	12.6656	0.396298	0.305182
12.8464	12.6652	0.39531	0.300556
12.8468	12.6647	0.394788	0.297756
12.8473	12.6642	0.398151	0.296002
12.8478	12.6637	0.397521	0.294196
12.8482	12.6633	0.397139	0.292141
12.8487	12.6628	0.396604	0.289687
12.8492	12.6623	0.396079	0.287107
12.8497	12.6619	0.396669	0.284238
12.8501	12.6614	0.395349	0.283426
12.8506	12.6609	0.395446	0.282683
12.8511	12.6605	0.394379	0.280436
12.8516	12.66	0.394626	0.276427
12.852	12.6595	0.395857	0.274817
12.8525	12.6591	0.396133	0.274333
12.853	12.6586	0.394918	0.275366
12.8534	12.6581	0.395141	0.273156
12.8539	12.6577	0.393817	0.269367
12.8544	12.6572	0.396537	0.270351
12.8549	12.6567	0.394032	0.272443
12.8553	12.6562	0.394139	0.273175
12.8558	12.6557	0.394078	0.272613
12.8563	12.6553	0.393233	0.272439
12.8567	12.6548	0.395857	0.273719
12.8572	12.6543	0.39505	0.275898
12.8577	12.6538	0.394231	0.278581
12.8582	12.6534	0.395345	0.279643
12.8586	12.6529	0.393895	0.28006
12.8591	12.6524	0.39552	0.283498
12.8596	12.652	0.395046	0.286155
12.8601	12.6515	0.39437	0.290357
12.8605	12.651	0.394693	0.289981
12.861	12.6505	0.392956	0.291648
12.8615	12.65	0.395815	0.29521
12.8619	12.6496	0.394533	0.298713
12.8624	12.6491	0.393264	0.301755
12.8629	12.6486	0.393411	0.30252
12.8634	12.6482	0.392325	0.303859
12.8638	12.6477	0.393176	0.306313
12.8643	12.6472	0.392668	0.308233
12.8648	12.6467	0.390885	0.310589
12.8652	12.6463	0.388517	0.310373
12.8657	12.6458	0.388145	0.308667
12.8662	12.6453	0.389623	0.31128
12.8667	12.6448	0.388503	0.312739
12.8671	12.6443	0.390619	0.313897
12.8676	12.6439	0.388295	0.315773
12.8681	12.6434	0.388207	0.315106
12.8686	12.6429	0.39083	0.316992
12.869	12.6425	0.390998	0.318267
12.8695	12.642	0.392469	0.320085
12.87	12.6416	0.390996	0.318249
12.8704	12.6411	0.390984	0.317683
12.8709	12.6406	0.392218	0.31813
12.8714	12.6401	0.392558	0.319844
12.8719	12.6397	0.391187	0.320007
12.8723	12.6392	0.390486	0.318194
12.8728	12.6387	0.390558	0.316714
12.8733	12.6383	0.390435	0.317503
12.8737	12.6378	0.390877	0.316767
12.8742	12.6373	0.390407	0.3162
12.8747	12.6369	0.390096	0.315367
12.8752	12.6364	0.389833	0.312449
12.8756	12.6359	0.390842	0.312574
12.8761	12.6354	0.390714	0.314316
12.8766	12.6349	0.390141	0.31269
12.8771	12.6345	0.389412	0.311695
12.8775	12.634	0.389007	0.308704
12.878	12.6335	0.393326	0.312191
12.8785	12.6331	0.394456	0.313989
12.8789	12.6326	0.389274	0.312098
12.8794	12.6321	0.390432	0.309583
12.8799	12.6317	0.388878	0.309058
12.8804	12.6312	0.39	0.309883
12.8808	12.6307	0.390107	0.310511
12.8813	12.6302	0.389985	0.310936
12.8818	12.6298	0.388246	0.311193
12.8822	12.6293	0.388838	0.310022
12.8827	12.6288	0.39092	0.311779
12.8832	12.6284	0.389263	0.313546
12.8837	12.6279	0.388446	0.312301
12.8841	12.6274	0.388578	0.311382
12.8846	12.6269	0.388606	0.309974
12.8851	12.6265	0.388978	0.309992
12.8856	12.626	0.388318	0.31069
12.886	12.6255	0.388811	0.311551
12.8865	12.625	0.38728	0.308653
12.887	12.6245	0.3886	0.306024
12.8874	12.6241	0.388896	0.307406
12.8879	12.6236	0.389255	0.308579
12.8884	12.6231	0.389142	0.307498
12.8889	12.6227	0.388081	0.306428
12.8893	12.6222	0.388744	0.30333
12.8898	12.6217	0.388589	0.302944
12.8903	12.6213	0.389188	0.3054
12.8907	12.6208	0.387867	0.303755
12.8912	12.6203	0.389972	0.302482
12.8917	12.6198	0.387853	0.301887
12.8922	12.6193	0.390338	0.302414
12.8926	12.6189	0.39083	0.305256
12.8931	12.6184	0.390036	0.304459
12.8936	12.618	0.389224	0.302229
12.8941	12.6175	0.390652	0.301677
12.8945	12.617	0.390178	0.301689
12.895	12.6165	0.391861	0.303657
12.8955	12.616	0.389408	0.303817
12.8959	12.6156	0.388617	0.30226
12.8964	12.6151	0.389545	0.300999
12.8969	12.6146	0.390124	0.302112
12.8974	12.6141	0.390401	0.303383
12.8978	12.6137	0.389463	0.302332
12.8983	12.6132	0.387877	0.300994
12.8988	12.6127	0.390887	0.299289
