# 1304     AichiSR QXAFS
# Start     : 8.9544
# End       : 9.0544
# Dir       : Backward
# Points    : 300
# ScanTime  : 1.01549
# Date      : 13.04.23 22:24
# Ring Cur. : 25.5[mA]
12.7557	12.6118	0.304189	0.23293
12.7562	12.6122	0.304332	0.23068
12.7566	12.6127	0.303576	0.233267
12.7571	12.6131	0.305779	0.236973
12.7576	12.6136	0.304332	0.236023
12.7581	12.6141	0.303919	0.234344
12.7585	12.6145	0.306723	0.236665
12.759	12.615	0.306057	0.237415
12.7595	12.6155	0.306623	0.239315
12.7599	12.616	0.306324	0.240827
12.7604	12.6165	0.306102	0.237361
12.7609	12.6169	0.306815	0.238174
12.7614	12.6174	0.308105	0.239702
12.7618	12.6179	0.307975	0.241225
12.7623	12.6184	0.305363	0.240267
12.7628	12.6188	0.306689	0.239948
12.7632	12.6193	0.307541	0.23904
12.7637	12.6197	0.307804	0.239123
12.7642	12.6202	0.307964	0.241281
12.7647	12.6207	0.307526	0.242397
12.7651	12.6212	0.306965	0.239115
12.7656	12.6217	0.305698	0.238362
12.7661	12.6221	0.31062	0.241045
12.7666	12.6226	0.308085	0.241932
12.767	12.6231	0.308829	0.243645
12.7675	12.6235	0.307793	0.242869
12.768	12.624	0.309006	0.243863
12.7684	12.6245	0.310782	0.243893
12.7689	12.625	0.308292	0.245422
12.7694	12.6254	0.309258	0.247063
12.7699	12.6259	0.310002	0.246623
12.7703	12.6264	0.309777	0.24519
12.7708	12.6269	0.307964	0.246206
12.7713	12.6274	0.310433	0.24835
12.7717	12.6278	0.310098	0.249576
12.7722	12.6283	0.308149	0.248142
12.7727	12.6288	0.309452	0.246626
12.7732	12.6292	0.310256	0.247576
12.7736	12.6297	0.31034	0.250464
12.7741	12.6302	0.312278	0.251461
12.7746	12.6306	0.310665	0.248644
12.7751	12.6311	0.309168	0.247226
12.7755	12.6316	0.312325	0.24873
12.776	12.6321	0.312654	0.249851
12.7765	12.6325	0.309826	0.251373
12.7769	12.633	0.310605	0.247396
12.7774	12.6335	0.312335	0.247292
12.7779	12.6339	0.312613	0.248542
12.7784	12.6344	0.310314	0.248909
12.7788	12.6349	0.313902	0.250571
12.7793	12.6353	0.311529	0.249578
12.7798	12.6358	0.31049	0.248347
12.7802	12.6363	0.312996	0.251492
12.7807	12.6368	0.313966	0.25416
12.7812	12.6373	0.310928	0.252039
12.7817	12.6377	0.312297	0.252834
12.7821	12.6382	0.314303	0.254272
12.7826	12.6387	0.314015	0.254065
12.7831	12.6391	0.311686	0.254343
12.7836	12.6396	0.313911	0.256485
12.784	12.6401	0.3129	0.255947
12.7845	12.6405	0.313224	0.253792
12.785	12.641	0.315281	0.256016
12.7854	12.6415	0.314161	0.257648
12.7859	12.6419	0.312476	0.256493
12.7864	12.6424	0.312367	0.255504
12.7869	12.6429	0.316254	0.254457
12.7873	12.6433	0.312292	0.254129
12.7878	12.6438	0.313231	0.255199
12.7883	12.6443	0.313968	0.256055
12.7887	12.6447	0.313828	0.254005
12.7892	12.6452	0.311851	0.249212
12.7897	12.6457	0.312166	0.251562
12.7902	12.6462	0.313803	0.252475
12.7906	12.6467	0.312031	0.249879
12.7911	12.6471	0.310496	0.248511
12.7916	12.6476	0.316295	0.249257
12.7921	12.6481	0.314227	0.247066
12.7925	12.6486	0.313572	0.244666
12.793	12.649	0.315916	0.246836
12.7935	12.6495	0.316653	0.242629
12.7939	12.65	0.314515	0.239157
12.7944	12.6505	0.31605	0.238853
12.7949	12.6509	0.316242	0.238288
12.7954	12.6514	0.31515	0.235411
12.7958	12.6519	0.316662	0.233037
12.7963	12.6524	0.318849	0.231719
12.7968	12.6528	0.316344	0.230174
12.7972	12.6533	0.31621	0.229233
12.7977	12.6538	0.318319	0.2278
12.7982	12.6542	0.316586	0.224137
12.7987	12.6547	0.318736	0.223212
12.7991	12.6552	0.318245	0.223425
12.7996	12.6557	0.316276	0.222832
12.8001	12.6561	0.316546	0.219964
12.8006	12.6566	0.317584	0.218589
12.801	12.6571	0.319683	0.219399
12.8015	12.6576	0.316006	0.217897
12.802	12.6581	0.316664	0.219516
12.8024	12.6585	0.318367	0.220921
12.8029	12.659	0.318354	0.219206
12.8034	12.6594	0.318436	0.220008
12.8039	12.6599	0.318472	0.222058
12.8043	12.6604	0.319743	0.223814
12.8048	12.6609	0.316023	0.22452
12.8053	12.6613	0.318485	0.224903
12.8057	12.6618	0.322149	0.227092
12.8062	12.6623	0.318123	0.228532
12.8067	12.6627	0.318424	0.230927
12.8072	12.6632	0.320366	0.23314
12.8076	12.6637	0.318122	0.233086
12.8081	12.6641	0.321926	0.234977
12.8086	12.6646	0.321294	0.237931
12.8091	12.6651	0.320193	0.240822
12.8095	12.6656	0.317808	0.241169
12.81	12.666	0.319118	0.242247
12.8105	12.6665	0.323287	0.246167
12.8109	12.667	0.318538	0.246705
12.8114	12.6675	0.318293	0.250204
12.8119	12.6679	0.3206	0.251874
12.8124	12.6684	0.319009	0.251248
12.8128	12.6689	0.319999	0.253338
12.8133	12.6693	0.320262	0.257638
12.8138	12.6698	0.321224	0.260227
12.8142	12.6703	0.319228	0.260013
12.8147	12.6707	0.319882	0.262126
12.8152	12.6712	0.321759	0.266096
12.8157	12.6717	0.320284	0.266908
12.8161	12.6721	0.319906	0.269272
12.8166	12.6726	0.321544	0.271486
12.8171	12.6731	0.320793	0.269511
12.8176	12.6735	0.321742	0.272285
12.818	12.674	0.322406	0.272934
12.8185	12.6745	0.320015	0.273915
12.819	12.675	0.319304	0.273716
12.8194	12.6755	0.319542	0.274224
12.8199	12.6759	0.322073	0.276218
12.8204	12.6764	0.321257	0.276829
12.8209	12.6769	0.32189	0.278304
12.8213	12.6774	0.320508	0.277711
12.8218	12.6779	0.320722	0.276062
12.8223	12.6783	0.323349	0.276747
12.8227	12.6788	0.322441	0.277979
12.8232	12.6793	0.322475	0.278012
12.8237	12.6797	0.320739	0.274652
12.8242	12.6802	0.319322	0.271896
12.8246	12.6807	0.322061	0.271713
12.8251	12.6812	0.32112	0.269157
12.8256	12.6816	0.321269	0.266026
12.8261	12.6821	0.322203	0.264938
12.8265	12.6826	0.320416	0.259236
12.827	12.683	0.321288	0.258145
12.8275	12.6835	0.319592	0.256341
12.8279	12.684	0.32088	0.255165
12.8284	12.6844	0.321273	0.25187
12.8289	12.6849	0.319756	0.248695
12.8294	12.6854	0.321934	0.247004
12.8298	12.6859	0.322033	0.245299
12.8303	12.6864	0.321144	0.241562
12.8308	12.6868	0.323394	0.238619
12.8312	12.6873	0.322008	0.231389
12.8317	12.6878	0.322707	0.229773
12.8322	12.6883	0.322919	0.228209
12.8327	12.6887	0.322662	0.22678
12.8331	12.6892	0.322223	0.222566
12.8336	12.6897	0.323151	0.220007
12.8341	12.6901	0.324484	0.222567
12.8346	12.6906	0.322141	0.223736
12.835	12.6911	0.321954	0.227381
12.8355	12.6915	0.322706	0.230257
12.836	12.692	0.323557	0.231137
12.8364	12.6925	0.323281	0.235683
12.8369	12.6929	0.323363	0.242277
12.8374	12.6934	0.322203	0.247621
12.8379	12.6939	0.322581	0.25068
12.8383	12.6943	0.323168	0.253605
12.8388	12.6948	0.323913	0.257283
12.8393	12.6953	0.321709	0.258967
12.8397	12.6958	0.321399	0.262532
12.8402	12.6962	0.323306	0.263043
12.8407	12.6967	0.322808	0.260003
12.8412	12.6972	0.322217	0.259986
12.8416	12.6977	0.323467	0.259496
12.8421	12.6981	0.320994	0.259261
12.8426	12.6986	0.318594	0.252738
12.8431	12.6991	0.323133	0.24996
12.8435	12.6995	0.324617	0.248118
12.844	12.7	0.319885	0.244828
12.8445	12.7005	0.321052	0.240993
12.8449	12.7009	0.322911	0.236961
12.8454	12.7014	0.322987	0.232565
12.8459	12.7019	0.320402	0.228952
12.8464	12.7024	0.322455	0.228904
12.8468	12.7028	0.321065	0.227849
12.8473	12.7033	0.32154	0.225777
12.8478	12.7038	0.321662	0.22716
12.8482	12.7042	0.323812	0.231697
12.8487	12.7047	0.321791	0.236541
12.8492	12.7052	0.32041	0.241356
12.8497	12.7057	0.321668	0.248604
12.8501	12.7062	0.324093	0.256303
12.8506	12.7067	0.322029	0.266103
12.8511	12.7071	0.324543	0.277586
12.8516	12.7076	0.323394	0.291164
12.852	12.7081	0.323122	0.30059
12.8525	12.7086	0.32466	0.315078
12.853	12.709	0.3258	0.328752
12.8534	12.7095	0.324794	0.342547
12.8539	12.7099	0.322815	0.355347
12.8544	12.7104	0.324371	0.367521
12.8549	12.7109	0.324961	0.381569
12.8553	12.7114	0.323291	0.392119
12.8558	12.7119	0.323535	0.406842
12.8563	12.7123	0.324314	0.418246
12.8567	12.7128	0.323059	0.424297
12.8572	12.7132	0.324419	0.433817
12.8577	12.7137	0.324743	0.445616
12.8582	12.7142	0.324775	0.4532
12.8586	12.7147	0.323322	0.459971
12.8591	12.7152	0.323329	0.46955
12.8596	12.7156	0.324229	0.4768
12.8601	12.7161	0.324421	0.485596
12.8605	12.7166	0.322623	0.495795
12.861	12.7171	0.323356	0.504909
12.8615	12.7175	0.320537	0.504443
12.8619	12.718	0.322855	0.51139
12.8624	12.7185	0.324475	0.51452
12.8629	12.7189	0.321977	0.510178
12.8634	12.7194	0.320872	0.507967
12.8638	12.7199	0.323278	0.50373
12.8643	12.7203	0.323111	0.498549
12.8648	12.7208	0.321539	0.498554
12.8652	12.7213	0.321545	0.502549
12.8657	12.7218	0.31989	0.508747
12.8662	12.7222	0.31895	0.515702
12.8667	12.7227	0.322655	0.543208
12.8671	12.7231	0.320897	0.576622
12.8676	12.7236	0.318844	0.613446
12.8681	12.7241	0.318028	0.66415
12.8686	12.7245	0.318507	0.716531
12.869	12.725	0.318872	0.759946
12.8695	12.7255	0.316523	0.802226
12.87	12.726	0.317978	0.842907
12.8704	12.7265	0.318897	0.870016
12.8709	12.7269	0.318626	0.883672
12.8714	12.7274	0.322078	0.903627
12.8719	12.7279	0.325755	0.930897
12.8723	12.7284	0.32339	0.931522
12.8728	12.7288	0.320252	0.931373
12.8733	12.7293	0.322748	0.936252
12.8737	12.7298	0.32272	0.941552
12.8742	12.7302	0.322747	0.943022
12.8747	12.7307	0.321457	0.950496
12.8752	12.7312	0.322394	0.955298
12.8756	12.7317	0.319564	0.945719
12.8761	12.7321	0.322218	0.956261
12.8766	12.7326	0.321866	0.964402
12.8771	12.7331	0.322803	0.962545
12.8775	12.7335	0.320587	0.964033
12.878	12.734	0.322195	0.968299
12.8785	12.7345	0.32467	0.969705
12.8789	12.735	0.323073	0.966612
12.8794	12.7355	0.323501	0.971795
12.8799	12.7359	0.321879	0.974905
12.8804	12.7364	0.322703	0.970052
12.8808	12.7369	0.322813	0.971808
12.8813	12.7374	0.323135	0.974342
12.8818	12.7379	0.32285	0.975176
12.8822	12.7383	0.322476	0.975623
12.8827	12.7388	0.323871	0.978688
12.8832	12.7393	0.32589	0.979661
12.8837	12.7397	0.32261	0.977333
12.8841	12.7402	0.324701	0.986287
12.8846	12.7407	0.325115	0.984805
12.8851	12.7411	0.325058	0.983918
12.8856	12.7416	0.327016	0.98853
12.886	12.7421	0.327983	0.989847
12.8865	12.7425	0.325598	0.989813
12.887	12.743	0.326336	0.989254
12.8874	12.7435	0.325434	0.993144
12.8879	12.7439	0.32732	0.989418
12.8884	12.7444	0.327296	0.994409
12.8889	12.7449	0.32702	0.996463
12.8893	12.7454	0.327614	0.997828
12.8898	12.7459	0.32709	0.993042
12.8903	12.7463	0.329643	0.99698
12.8907	12.7468	0.328106	0.999255
12.8912	12.7473	0.32819	0.998377
12.8917	12.7478	0.328747	1.00345
12.8922	12.7482	0.329444	1.00118
12.8926	12.7487	0.331433	1.00311
12.8931	12.7492	0.32844	1.00286
12.8936	12.7496	0.330243	1.00467
12.8941	12.7501	0.328793	1.0022
12.8945	12.7506	0.327383	1.00247
12.895	12.751	0.330509	1.00422
12.8955	12.7515	0.330541	1.00412
12.8959	12.752	0.32827	1.00347
12.8964	12.7524	0.328142	1.00457
12.8969	12.7529	0.331444	1.00775
12.8974	12.7534	0.331094	1.00497
12.8978	12.7538	0.329531	1.00628
12.8983	12.7543	0.33177	1.01349
12.8988	12.7548	0.331158	1.00966
