# 1304     AichiSR QXAFS
# Start     : 8.9544
# End       : 9.0544
# Dir       : Forward
# Points    : 300
# ScanTime  : 1.01549
# Date      : 13.04.23 22:20
# Ring Cur. : 25.5[mA]
12.7557	12.7557	0.40162	1.22457
12.7562	12.7552	0.402335	1.22657
12.7566	12.7548	0.401791	1.22279
12.7571	12.7543	0.402879	1.22749
12.7576	12.7538	0.401144	1.22885
12.7581	12.7533	0.402288	1.2209
12.7585	12.7529	0.401893	1.22265
12.759	12.7524	0.402634	1.22604
12.7595	12.752	0.403101	1.22716
12.7599	12.7515	0.401116	1.22705
12.7604	12.751	0.401839	1.2236
12.7609	12.7505	0.401141	1.22062
12.7614	12.7501	0.401343	1.22176
12.7618	12.7496	0.402308	1.22476
12.7623	12.7491	0.400388	1.22421
12.7628	12.7487	0.401055	1.22051
12.7632	12.7482	0.402314	1.22256
12.7637	12.7477	0.402082	1.22374
12.7642	12.7473	0.402129	1.22495
12.7647	12.7468	0.401961	1.22318
12.7651	12.7463	0.401528	1.22069
12.7656	12.7458	0.400162	1.22003
12.7661	12.7454	0.401923	1.22098
12.7666	12.7449	0.401978	1.226
12.767	12.7444	0.401644	1.22175
12.7675	12.7439	0.401452	1.21494
12.768	12.7435	0.40301	1.21947
12.7684	12.743	0.403309	1.22033
12.7689	12.7425	0.401167	1.22046
12.7694	12.7421	0.400675	1.22251
12.7699	12.7416	0.400273	1.21529
12.7703	12.7411	0.401437	1.21242
12.7708	12.7406	0.402339	1.21568
12.7713	12.7402	0.40257	1.21904
12.7717	12.7397	0.400145	1.21378
12.7722	12.7392	0.400506	1.21251
12.7727	12.7388	0.401583	1.21337
12.7732	12.7383	0.40105	1.21271
12.7736	12.7378	0.401877	1.21368
12.7741	12.7374	0.399938	1.21252
12.7746	12.7369	0.401707	1.20615
12.7751	12.7364	0.401306	1.20453
12.7755	12.7359	0.401367	1.20663
12.776	12.7354	0.400795	1.20932
12.7765	12.7349	0.399026	1.20709
12.7769	12.7345	0.400506	1.20044
12.7774	12.734	0.401251	1.20123
12.7779	12.7335	0.400969	1.19915
12.7784	12.733	0.401274	1.20007
12.7788	12.7326	0.39912	1.19649
12.7793	12.7321	0.400285	1.19017
12.7798	12.7317	0.400196	1.1861
12.7802	12.7312	0.400373	1.18744
12.7807	12.7307	0.399912	1.18741
12.7812	12.7302	0.399816	1.17883
12.7817	12.7297	0.400359	1.17242
12.7821	12.7293	0.400621	1.17244
12.7826	12.7288	0.400841	1.168
12.7831	12.7284	0.40008	1.15941
12.7836	12.7279	0.397807	1.15335
12.784	12.7274	0.397991	1.14147
12.7845	12.7269	0.398567	1.12477
12.785	12.7265	0.396394	1.1092
12.7854	12.726	0.396336	1.08984
12.7859	12.7255	0.393851	1.05658
12.7864	12.725	0.392843	1.01186
12.7869	12.7245	0.39404	0.966715
12.7873	12.7241	0.394224	0.909801
12.7878	12.7236	0.39482	0.850722
12.7883	12.7231	0.394906	0.797186
12.7887	12.7227	0.398005	0.736414
12.7892	12.7222	0.398956	0.689979
12.7897	12.7218	0.398352	0.657857
12.7902	12.7213	0.397701	0.638508
12.7906	12.7208	0.397417	0.625952
12.7911	12.7203	0.397558	0.61558
12.7916	12.7199	0.40012	0.617982
12.7921	12.7194	0.398443	0.62071
12.7925	12.7189	0.397553	0.626095
12.793	12.7185	0.396904	0.630556
12.7935	12.718	0.397662	0.630149
12.7939	12.7175	0.39872	0.630944
12.7944	12.7171	0.397165	0.628437
12.7949	12.7166	0.395974	0.6222
12.7954	12.7161	0.396293	0.611897
12.7958	12.7156	0.39671	0.597539
12.7963	12.7151	0.396863	0.588046
12.7968	12.7147	0.39679	0.579514
12.7972	12.7142	0.397398	0.569792
12.7977	12.7137	0.396147	0.55976
12.7982	12.7132	0.39634	0.547198
12.7987	12.7128	0.398816	0.536564
12.7991	12.7123	0.398848	0.525016
12.7996	12.7118	0.396477	0.515856
12.8001	12.7114	0.396789	0.501027
12.8006	12.7109	0.394469	0.484575
12.801	12.7104	0.397063	0.471798
12.8015	12.7099	0.395575	0.455859
12.802	12.7095	0.396119	0.440357
12.8024	12.709	0.395968	0.424485
12.8029	12.7086	0.396123	0.406648
12.8034	12.7081	0.396595	0.390174
12.8039	12.7076	0.397143	0.373909
12.8043	12.7071	0.396854	0.360938
12.8048	12.7066	0.396002	0.34548
12.8053	12.7062	0.394753	0.330492
12.8057	12.7057	0.397663	0.318714
12.8062	12.7052	0.395309	0.309812
12.8067	12.7047	0.395242	0.299573
12.8072	12.7042	0.395541	0.291356
12.8076	12.7038	0.395028	0.283891
12.8081	12.7033	0.3968	0.281199
12.8086	12.7028	0.396362	0.279195
12.8091	12.7024	0.39628	0.279958
12.8095	12.7019	0.394511	0.27829
12.81	12.7014	0.395561	0.280487
12.8105	12.7009	0.396125	0.28293
12.8109	12.7005	0.39639	0.28853
12.8114	12.7	0.394734	0.292903
12.8119	12.6995	0.394384	0.298158
12.8124	12.6991	0.394568	0.300077
12.8128	12.6986	0.395663	0.304331
12.8133	12.6981	0.395567	0.30919
12.8138	12.6977	0.394652	0.314035
12.8142	12.6972	0.392914	0.316204
12.8147	12.6967	0.394474	0.316564
12.8152	12.6962	0.394968	0.319526
12.8157	12.6958	0.393982	0.321522
12.8161	12.6953	0.39469	0.32068
12.8166	12.6948	0.396023	0.318185
12.8171	12.6943	0.395387	0.314791
12.8176	12.6939	0.395998	0.310275
12.818	12.6934	0.393489	0.307657
12.8185	12.6929	0.392899	0.30263
12.819	12.6925	0.394141	0.296878
12.8194	12.692	0.393937	0.289541
12.8199	12.6915	0.394291	0.28519
12.8204	12.6911	0.393998	0.280784
12.8209	12.6906	0.393624	0.276749
12.8213	12.6901	0.393482	0.273171
12.8218	12.6897	0.393328	0.270125
12.8223	12.6892	0.394106	0.270194
12.8227	12.6887	0.393388	0.271651
12.8232	12.6883	0.392344	0.27382
12.8237	12.6878	0.391741	0.275623
12.8242	12.6873	0.391595	0.277636
12.8246	12.6868	0.393776	0.282271
12.8251	12.6864	0.392528	0.287695
12.8256	12.6859	0.389382	0.290596
12.8261	12.6854	0.390592	0.293835
12.8265	12.6849	0.389844	0.297489
12.827	12.6844	0.392894	0.301483
12.8275	12.684	0.391169	0.30558
12.8279	12.6835	0.389983	0.307769
12.8284	12.683	0.388948	0.311178
12.8289	12.6826	0.389796	0.312622
12.8294	12.6821	0.392119	0.317059
12.8298	12.6816	0.392061	0.321013
12.8303	12.6812	0.38886	0.323209
12.8308	12.6807	0.39239	0.326175
12.8312	12.6802	0.391842	0.32757
12.8317	12.6797	0.393352	0.330038
12.8322	12.6793	0.39174	0.334099
12.8327	12.6788	0.393194	0.335083
12.8331	12.6783	0.39059	0.336098
12.8336	12.6779	0.390792	0.336036
12.8341	12.6774	0.392548	0.337683
12.8346	12.6769	0.392508	0.339229
12.835	12.6764	0.391463	0.336829
12.8355	12.6759	0.390986	0.335933
12.836	12.6755	0.390938	0.334598
12.8364	12.675	0.392246	0.334653
12.8369	12.6745	0.391521	0.336651
12.8374	12.674	0.389478	0.334487
12.8379	12.6735	0.391636	0.332365
12.8383	12.6731	0.390571	0.328955
12.8388	12.6726	0.391457	0.330058
12.8393	12.6722	0.390489	0.329344
12.8397	12.6717	0.389033	0.327125
12.8402	12.6712	0.388821	0.323575
12.8407	12.6707	0.389786	0.322177
12.8412	12.6703	0.390245	0.319629
12.8416	12.6698	0.389871	0.31939
12.8421	12.6693	0.390274	0.318153
12.8426	12.6689	0.389111	0.311851
12.8431	12.6684	0.389207	0.308894
12.8435	12.6679	0.389884	0.307021
12.844	12.6675	0.390097	0.306484
12.8445	12.667	0.388225	0.30401
12.8449	12.6665	0.389145	0.299068
12.8454	12.666	0.390299	0.297739
12.8459	12.6656	0.38875	0.295302
12.8464	12.6651	0.389519	0.294124
12.8468	12.6646	0.386834	0.292903
12.8473	12.6641	0.388179	0.289254
12.8478	12.6637	0.388524	0.286263
12.8482	12.6632	0.38875	0.284447
12.8487	12.6627	0.388889	0.282557
12.8492	12.6623	0.38639	0.280752
12.8497	12.6618	0.38674	0.278728
12.8501	12.6613	0.386931	0.274994
12.8506	12.6609	0.386232	0.27398
12.8511	12.6604	0.388032	0.273896
12.8516	12.6599	0.38573	0.272197
12.852	12.6594	0.387394	0.269404
12.8525	12.659	0.386704	0.268044
12.853	12.6585	0.387553	0.265935
12.8534	12.6581	0.386376	0.267315
12.8539	12.6576	0.386743	0.266709
12.8544	12.6571	0.386866	0.265375
12.8549	12.6566	0.385859	0.26455
12.8553	12.6561	0.391663	0.268136
12.8558	12.6557	0.388492	0.269693
12.8563	12.6552	0.386029	0.268398
12.8567	12.6547	0.385513	0.269287
12.8572	12.6542	0.386023	0.270634
12.8577	12.6537	0.386948	0.272737
12.8582	12.6533	0.387352	0.275663
12.8586	12.6528	0.38491	0.277046
12.8591	12.6523	0.38644	0.27954
12.8596	12.6519	0.386089	0.280478
12.8601	12.6514	0.388431	0.284348
12.8605	12.6509	0.386784	0.28714
12.861	12.6505	0.386218	0.288639
12.8615	12.65	0.385209	0.289682
12.8619	12.6495	0.386844	0.291718
12.8624	12.649	0.386444	0.295153
12.8629	12.6486	0.386928	0.29815
12.8634	12.6481	0.385165	0.299917
12.8638	12.6476	0.383705	0.29945
12.8643	12.6471	0.383867	0.301564
12.8648	12.6467	0.383867	0.303172
12.8652	12.6462	0.381926	0.305579
12.8657	12.6457	0.381186	0.306501
12.8662	12.6452	0.381606	0.304843
12.8667	12.6447	0.381944	0.306483
12.8671	12.6443	0.383348	0.310088
12.8676	12.6438	0.38455	0.31241
12.8681	12.6433	0.383458	0.311334
12.8686	12.6429	0.385323	0.312756
12.869	12.6424	0.386691	0.312444
12.8695	12.642	0.385912	0.314336
12.87	12.6415	0.386194	0.316037
12.8704	12.641	0.385351	0.315328
12.8709	12.6405	0.385754	0.31315
12.8714	12.6401	0.385944	0.314328
12.8719	12.6396	0.386585	0.314986
12.8723	12.6391	0.387771	0.315285
12.8728	12.6387	0.384885	0.314215
12.8733	12.6382	0.385922	0.312619
12.8737	12.6377	0.388563	0.312392
12.8742	12.6373	0.386886	0.311807
12.8747	12.6368	0.386863	0.314006
12.8752	12.6363	0.385296	0.310945
12.8756	12.6358	0.385565	0.308954
12.8761	12.6354	0.387015	0.308876
12.8766	12.6349	0.38805	0.309052
12.8771	12.6344	0.387804	0.310428
12.8775	12.6339	0.386071	0.309336
12.878	12.6335	0.386299	0.306807
12.8785	12.633	0.387587	0.307909
12.8789	12.6325	0.38824	0.308599
12.8794	12.6321	0.388312	0.309193
12.8799	12.6316	0.386928	0.309482
12.8804	12.6311	0.386134	0.307321
12.8808	12.6306	0.387356	0.307931
12.8813	12.6302	0.388212	0.309014
12.8818	12.6297	0.387941	0.310314
12.8822	12.6292	0.386698	0.309056
12.8827	12.6288	0.386229	0.308054
12.8832	12.6283	0.387189	0.308265
12.8837	12.6278	0.389094	0.309879
12.8841	12.6274	0.387046	0.310401
12.8846	12.6269	0.387763	0.309487
12.8851	12.6264	0.386044	0.308436
12.8856	12.6259	0.388219	0.307391
12.886	12.6254	0.387444	0.308022
12.8865	12.625	0.388772	0.310021
12.887	12.6245	0.386899	0.306454
12.8874	12.624	0.386546	0.305176
12.8879	12.6235	0.388225	0.304094
12.8884	12.6231	0.38782	0.30485
12.8889	12.6226	0.386893	0.305109
12.8893	12.6221	0.386324	0.30394
12.8898	12.6217	0.386468	0.302335
12.8903	12.6212	0.387131	0.301079
12.8907	12.6207	0.387124	0.302053
12.8912	12.6202	0.386878	0.302301
12.8917	12.6197	0.384766	0.300828
12.8922	12.6193	0.386204	0.300041
12.8926	12.6188	0.388322	0.299287
12.8931	12.6183	0.387538	0.300844
12.8936	12.6179	0.387238	0.301971
12.8941	12.6174	0.387107	0.301256
12.8945	12.6169	0.385462	0.299275
12.895	12.6164	0.387774	0.300031
12.8955	12.616	0.387884	0.301816
12.8959	12.6155	0.386903	0.301992
12.8964	12.615	0.385904	0.299814
12.8969	12.6145	0.385508	0.298023
12.8974	12.6141	0.387511	0.299486
12.8978	12.6136	0.387524	0.298906
12.8983	12.6131	0.386572	0.299374
12.8988	12.6127	0.387506	0.299226
