# 1304     AichiSR QXAFS
# Start     : 8.9544
# End       : 9.0544
# Dir       : Backward
# Points    : 300
# ScanTime  : 1.01549
# Date      : 13.04.23 22:29
# Ring Cur. : 25.7[mA]
12.7557	12.6118	0.299842	0.2281
12.7562	12.6123	0.298756	0.22625
12.7566	12.6127	0.298289	0.22968
12.7571	12.6132	0.298123	0.232165
12.7576	12.6136	0.298894	0.23033
12.7581	12.6141	0.299465	0.23128
12.7585	12.6146	0.301043	0.232765
12.759	12.6151	0.299008	0.233221
12.7595	12.6155	0.298568	0.234443
12.7599	12.616	0.302016	0.235085
12.7604	12.6165	0.302161	0.234383
12.7609	12.617	0.300066	0.233538
12.7614	12.6175	0.30016	0.235307
12.7618	12.6179	0.302281	0.237499
12.7623	12.6184	0.30071	0.23415
12.7628	12.6189	0.302635	0.235637
12.7632	12.6193	0.301987	0.235101
12.7637	12.6198	0.302794	0.236261
12.7642	12.6203	0.299585	0.234441
12.7647	12.6208	0.301166	0.233665
12.7651	12.6212	0.303153	0.234635
12.7656	12.6217	0.300596	0.235026
12.7661	12.6222	0.302238	0.2376
12.7666	12.6226	0.302471	0.238603
12.767	12.6231	0.302249	0.238634
12.7675	12.6236	0.303758	0.238304
12.768	12.6241	0.305486	0.240075
12.7684	12.6245	0.303634	0.239975
12.7689	12.625	0.30105	0.239878
12.7694	12.6255	0.302699	0.240984
12.7699	12.626	0.30423	0.240847
12.7703	12.6264	0.303083	0.241168
12.7708	12.6269	0.302589	0.242859
12.7713	12.6274	0.302639	0.244136
12.7717	12.6279	0.301349	0.241576
12.7722	12.6284	0.304081	0.242691
12.7727	12.6288	0.306366	0.245265
12.7732	12.6293	0.30425	0.244602
12.7736	12.6297	0.303059	0.244647
12.7741	12.6302	0.304669	0.244842
12.7746	12.6307	0.307145	0.244594
12.7751	12.6312	0.306349	0.243982
12.7755	12.6317	0.304697	0.245609
12.776	12.6321	0.303354	0.244863
12.7765	12.6326	0.303732	0.242506
12.7769	12.633	0.304423	0.242464
12.7774	12.6335	0.305282	0.243538
12.7779	12.634	0.305045	0.244358
12.7784	12.6344	0.304626	0.245195
12.7788	12.6349	0.306559	0.244161
12.7793	12.6354	0.307226	0.245218
12.7798	12.6359	0.306522	0.245304
12.7802	12.6364	0.307757	0.248445
12.7807	12.6368	0.305835	0.24847
12.7812	12.6373	0.305623	0.246153
12.7817	12.6378	0.308641	0.248874
12.7821	12.6383	0.309184	0.249604
12.7826	12.6387	0.307783	0.251052
12.7831	12.6392	0.305476	0.250479
12.7836	12.6396	0.307903	0.249868
12.784	12.6401	0.307889	0.24955
12.7845	12.6406	0.306107	0.250672
12.785	12.641	0.307228	0.251709
12.7854	12.6415	0.307433	0.253554
12.7859	12.642	0.305424	0.249884
12.7864	12.6424	0.310676	0.252078
12.7869	12.6429	0.30946	0.25322
12.7873	12.6434	0.307009	0.252241
12.7878	12.6438	0.306316	0.25058
12.7883	12.6443	0.307316	0.249677
12.7887	12.6448	0.310139	0.247861
12.7892	12.6453	0.305775	0.246839
12.7897	12.6458	0.306072	0.248085
12.7902	12.6462	0.304756	0.245713
12.7906	12.6467	0.304596	0.242648
12.7911	12.6472	0.309295	0.244587
12.7916	12.6477	0.307956	0.244494
12.7921	12.6482	0.308726	0.243139
12.7925	12.6486	0.308245	0.241636
12.793	12.6491	0.309597	0.239862
12.7935	12.6496	0.313022	0.240234
12.7939	12.65	0.31106	0.237149
12.7944	12.6505	0.310283	0.236242
12.7949	12.651	0.310261	0.234967
12.7954	12.6515	0.309998	0.230437
12.7958	12.6519	0.311243	0.228956
12.7963	12.6524	0.311483	0.228594
12.7968	12.6529	0.310784	0.22661
12.7972	12.6533	0.309798	0.224397
12.7977	12.6538	0.310856	0.221809
12.7982	12.6543	0.313109	0.22199
12.7987	12.6548	0.311558	0.218937
12.7991	12.6552	0.311272	0.219534
12.7996	12.6557	0.311544	0.218621
12.8001	12.6562	0.311112	0.215852
12.8006	12.6567	0.313785	0.215208
12.801	12.6571	0.312029	0.216662
12.8015	12.6576	0.31297	0.216806
12.802	12.6581	0.309844	0.216408
12.8024	12.6586	0.311783	0.213975
12.8029	12.659	0.314094	0.216472
12.8034	12.6595	0.312736	0.216881
12.8039	12.66	0.312306	0.218736
12.8043	12.6604	0.312475	0.219463
12.8048	12.6609	0.310333	0.218959
12.8053	12.6614	0.315144	0.220789
12.8057	12.6619	0.314404	0.225668
12.8062	12.6623	0.313832	0.226111
12.8067	12.6628	0.31226	0.22617
12.8072	12.6632	0.314244	0.227049
12.8076	12.6637	0.316877	0.231815
12.8081	12.6642	0.314954	0.232793
12.8086	12.6647	0.313649	0.234051
12.8091	12.6651	0.313601	0.23555
12.8095	12.6656	0.311264	0.23526
12.81	12.6661	0.317162	0.238504
12.8105	12.6666	0.316013	0.243168
12.8109	12.667	0.314061	0.242154
12.8114	12.6675	0.312391	0.244225
12.8119	12.668	0.31538	0.246122
12.8124	12.6685	0.31745	0.249568
12.8128	12.6689	0.314783	0.25166
12.8133	12.6694	0.315639	0.253747
12.8138	12.6698	0.31354	0.256198
12.8142	12.6703	0.312379	0.254968
12.8147	12.6708	0.315937	0.258873
12.8152	12.6713	0.317569	0.262765
12.8157	12.6717	0.314071	0.26188
12.8161	12.6722	0.312836	0.262432
12.8166	12.6727	0.315676	0.264888
12.8171	12.6731	0.316669	0.264622
12.8176	12.6736	0.314963	0.266502
12.818	12.6741	0.314376	0.269931
12.8185	12.6745	0.314667	0.270193
12.819	12.675	0.313479	0.266547
12.8194	12.6755	0.317145	0.269665
12.8199	12.676	0.316974	0.27324
12.8204	12.6765	0.315373	0.274512
12.8209	12.6769	0.311676	0.2715
12.8213	12.6774	0.316132	0.271715
12.8218	12.6779	0.318559	0.273745
12.8223	12.6784	0.315553	0.273995
12.8227	12.6789	0.314819	0.273939
12.8232	12.6793	0.31519	0.271206
12.8237	12.6798	0.315201	0.268939
12.8242	12.6803	0.317361	0.268623
12.8246	12.6807	0.318764	0.268656
12.8251	12.6812	0.316261	0.265819
12.8256	12.6817	0.314768	0.261653
12.8261	12.6821	0.315742	0.259056
12.8265	12.6826	0.31792	0.256778
12.827	12.6831	0.317135	0.2559
12.8275	12.6835	0.315453	0.253057
12.8279	12.684	0.314265	0.250555
12.8284	12.6845	0.313711	0.245706
12.8289	12.685	0.318117	0.245269
12.8294	12.6855	0.318498	0.245262
12.8298	12.6859	0.316373	0.240872
12.8303	12.6864	0.315555	0.237081
12.8308	12.6869	0.316576	0.23366
12.8312	12.6874	0.320475	0.231196
12.8317	12.6879	0.318756	0.227647
12.8322	12.6883	0.317201	0.226038
12.8327	12.6888	0.315014	0.222075
12.8331	12.6893	0.315988	0.217693
12.8336	12.6897	0.319384	0.21792
12.8341	12.6902	0.317882	0.2198
12.8346	12.6906	0.317664	0.221653
12.835	12.6911	0.31534	0.220463
12.8355	12.6916	0.317674	0.225171
12.836	12.6921	0.318266	0.228712
12.8364	12.6925	0.321037	0.235402
12.8369	12.693	0.317385	0.240111
12.8374	12.6935	0.316385	0.241827
12.8379	12.6939	0.315697	0.245709
12.8383	12.6944	0.319235	0.250086
12.8388	12.6949	0.318895	0.255143
12.8393	12.6953	0.315807	0.256681
12.8397	12.6958	0.315116	0.255865
12.8402	12.6963	0.31529	0.25626
12.8407	12.6968	0.317108	0.258289
12.8412	12.6973	0.315754	0.257123
12.8416	12.6977	0.317325	0.256964
12.8421	12.6982	0.317295	0.252934
12.8426	12.6987	0.315541	0.248453
12.8431	12.6991	0.318026	0.247375
12.8435	12.6996	0.320125	0.245444
12.844	12.7	0.31759	0.242267
12.8445	12.7005	0.314878	0.235983
12.8449	12.701	0.315392	0.232151
12.8454	12.7015	0.318432	0.229106
12.8459	12.702	0.316122	0.226573
12.8464	12.7024	0.316174	0.225856
12.8468	12.7029	0.314575	0.223019
12.8473	12.7033	0.313886	0.220685
12.8478	12.7038	0.316929	0.224462
12.8482	12.7043	0.319077	0.22989
12.8487	12.7048	0.316729	0.233482
12.8492	12.7053	0.316529	0.237314
12.8497	12.7057	0.318848	0.244318
12.8501	12.7062	0.319076	0.253759
12.8506	12.7067	0.317526	0.26147
12.8511	12.7072	0.319476	0.275845
12.8516	12.7077	0.317482	0.284687
12.852	12.7081	0.315062	0.292763
12.8525	12.7086	0.316758	0.30616
12.853	12.7091	0.320082	0.324246
12.8534	12.7095	0.317427	0.336999
12.8539	12.71	0.316363	0.34692
12.8544	12.7105	0.317563	0.360342
12.8549	12.711	0.318554	0.373214
12.8553	12.7114	0.318197	0.389031
12.8558	12.7119	0.319123	0.402278
12.8563	12.7124	0.319206	0.409565
12.8567	12.7128	0.316877	0.418215
12.8572	12.7133	0.318718	0.427192
12.8577	12.7138	0.320532	0.43963
12.8582	12.7142	0.316701	0.446087
12.8586	12.7147	0.316744	0.451026
12.8591	12.7152	0.318477	0.459038
12.8596	12.7157	0.318272	0.466438
12.8601	12.7162	0.318704	0.477821
12.8605	12.7166	0.318041	0.489363
12.861	12.7171	0.31722	0.49431
12.8615	12.7176	0.314226	0.497126
12.8619	12.7181	0.317484	0.503584
12.8624	12.7185	0.319732	0.508059
12.8629	12.719	0.315758	0.50261
12.8634	12.7194	0.316926	0.498507
12.8638	12.7199	0.318257	0.495275
12.8643	12.7204	0.317927	0.492371
12.8648	12.7209	0.315766	0.49036
12.8652	12.7213	0.316227	0.494133
12.8657	12.7218	0.315581	0.498397
12.8662	12.7223	0.313563	0.507622
12.8667	12.7227	0.315275	0.531253
12.8671	12.7232	0.315286	0.565441
12.8676	12.7237	0.312352	0.601723
12.8681	12.7241	0.311181	0.647567
12.8686	12.7246	0.312156	0.70067
12.869	12.7251	0.312105	0.747211
12.8695	12.7256	0.311396	0.790666
12.87	12.726	0.313649	0.830939
12.8704	12.7265	0.314719	0.854149
12.8709	12.727	0.3133	0.869626
12.8714	12.7275	0.319695	0.899375
12.8719	12.7279	0.319717	0.91412
12.8723	12.7284	0.313891	0.9081
12.8728	12.7289	0.31541	0.911767
12.8733	12.7293	0.314449	0.918374
12.8737	12.7298	0.316104	0.923294
12.8742	12.7303	0.315873	0.928058
12.8747	12.7307	0.316983	0.936238
12.8752	12.7312	0.315014	0.932416
12.8756	12.7317	0.313705	0.929336
12.8761	12.7322	0.317716	0.94111
12.8766	12.7326	0.317379	0.947548
12.8771	12.7331	0.316006	0.945878
12.8775	12.7336	0.317258	0.946345
12.878	12.7341	0.317746	0.952126
12.8785	12.7345	0.318935	0.950395
12.8789	12.735	0.317164	0.954616
12.8794	12.7355	0.31694	0.956802
12.8799	12.736	0.318544	0.952717
12.8804	12.7365	0.315984	0.950992
12.8808	12.7369	0.317201	0.953548
12.8813	12.7374	0.318727	0.962208
12.8818	12.7379	0.316289	0.960686
12.8822	12.7384	0.315473	0.954311
12.8827	12.7388	0.319056	0.959296
12.8832	12.7393	0.320719	0.968402
12.8837	12.7398	0.320781	0.96771
12.8841	12.7402	0.3195	0.974408
12.8846	12.7407	0.319322	0.969282
12.8851	12.7412	0.319127	0.968397
12.8856	12.7417	0.323272	0.9737
12.886	12.7421	0.322096	0.975294
12.8865	12.7426	0.318527	0.972159
12.887	12.7431	0.318664	0.970641
12.8874	12.7435	0.320204	0.971934
12.8879	12.744	0.321082	0.970888
12.8884	12.7445	0.32116	0.975943
12.8889	12.7449	0.323143	0.983084
12.8893	12.7454	0.320907	0.9767
12.8898	12.7459	0.321324	0.975955
12.8903	12.7464	0.323405	0.984762
12.8907	12.7469	0.326202	0.991508
12.8912	12.7473	0.323386	0.985143
12.8917	12.7478	0.323151	0.982533
12.8922	12.7483	0.324965	0.986728
12.8926	12.7487	0.324284	0.985542
12.8931	12.7492	0.323611	0.986692
12.8936	12.7497	0.323737	0.991346
12.8941	12.7501	0.323723	0.981423
12.8945	12.7506	0.322261	0.981113
12.895	12.7511	0.323998	0.986891
12.8955	12.7516	0.325124	0.989656
12.8959	12.752	0.323004	0.989017
12.8964	12.7525	0.324095	0.984037
12.8969	12.7529	0.324569	0.988483
12.8974	12.7534	0.322599	0.985712
12.8978	12.7539	0.324127	0.991492
12.8983	12.7543	0.325474	0.999605
12.8988	12.7548	0.326496	0.993652
