# 1304     AichiSR QXAFS
# Start     : 8.9544
# End       : 9.0544
# Dir       : Backward
# Points    : 300
# ScanTime  : 1.01549
# Date      : 13.04.23 22:31
# Ring Cur. : 25.7[mA]
12.7557	12.6118	0.29714	0.226902
12.7562	12.6123	0.299965	0.2279
12.7566	12.6127	0.300185	0.230689
12.7571	12.6132	0.300593	0.231558
12.7576	12.6137	0.296707	0.230501
12.7581	12.6141	0.298257	0.230986
12.7585	12.6146	0.301927	0.234387
12.759	12.6151	0.29918	0.233129
12.7595	12.6156	0.298492	0.233941
12.7599	12.616	0.299743	0.23442
12.7604	12.6165	0.299478	0.231151
12.7609	12.617	0.301781	0.232961
12.7614	12.6175	0.300907	0.234796
12.7618	12.618	0.300698	0.234897
12.7623	12.6184	0.298455	0.232691
12.7628	12.6189	0.298528	0.232902
12.7632	12.6194	0.302943	0.234868
12.7637	12.6198	0.3003	0.234235
12.7642	12.6203	0.299167	0.234227
12.7647	12.6208	0.300598	0.233524
12.7651	12.6213	0.299402	0.232812
12.7656	12.6217	0.301094	0.234274
12.7661	12.6222	0.302587	0.237679
12.7666	12.6227	0.300298	0.236799
12.767	12.6231	0.298613	0.235894
12.7675	12.6236	0.297912	0.234446
12.768	12.6241	0.306225	0.240015
12.7684	12.6245	0.304961	0.24128
12.7689	12.625	0.299145	0.239343
12.7694	12.6255	0.300188	0.239104
12.7699	12.626	0.300135	0.237519
12.7703	12.6265	0.300611	0.239631
12.7708	12.6269	0.301536	0.239924
12.7713	12.6274	0.300752	0.243292
12.7717	12.6279	0.299034	0.24129
12.7722	12.6284	0.298115	0.240092
12.7727	12.6288	0.303108	0.242345
12.7732	12.6293	0.30294	0.242381
12.7736	12.6298	0.301247	0.243051
12.7741	12.6302	0.301029	0.241579
12.7746	12.6307	0.299955	0.241223
12.7751	12.6312	0.30298	0.24191
12.7755	12.6317	0.303822	0.242511
12.776	12.6321	0.302353	0.242849
12.7765	12.6326	0.300146	0.240398
12.7769	12.6331	0.301366	0.239507
12.7774	12.6335	0.305355	0.242833
12.7779	12.634	0.302895	0.24229
12.7784	12.6345	0.300228	0.241253
12.7788	12.6349	0.304392	0.241771
12.7793	12.6354	0.303175	0.241677
12.7798	12.6359	0.304513	0.241347
12.7802	12.6364	0.306927	0.246996
12.7807	12.6368	0.304962	0.248747
12.7812	12.6373	0.300125	0.243326
12.7817	12.6378	0.303212	0.244842
12.7821	12.6383	0.307501	0.248464
12.7826	12.6387	0.305893	0.249562
12.7831	12.6392	0.304095	0.249623
12.7836	12.6397	0.303829	0.248559
12.784	12.6401	0.304605	0.246465
12.7845	12.6406	0.30577	0.249355
12.785	12.6411	0.308726	0.252151
12.7854	12.6415	0.306428	0.251736
12.7859	12.642	0.304901	0.24901
12.7864	12.6425	0.307387	0.249991
12.7869	12.6429	0.309657	0.250465
12.7873	12.6434	0.306111	0.250687
12.7878	12.6439	0.305428	0.250648
12.7883	12.6443	0.305378	0.248971
12.7887	12.6448	0.304632	0.245203
12.7892	12.6453	0.305553	0.246007
12.7897	12.6458	0.308649	0.248676
12.7902	12.6463	0.306067	0.248136
12.7906	12.6467	0.303963	0.242638
12.7911	12.6472	0.306367	0.242764
12.7916	12.6477	0.308773	0.244103
12.7921	12.6482	0.308993	0.242998
12.7925	12.6486	0.309079	0.241546
12.793	12.6491	0.308663	0.239306
12.7935	12.6496	0.308181	0.236732
12.7939	12.65	0.309788	0.235913
12.7944	12.6505	0.311864	0.236381
12.7949	12.651	0.311488	0.23469
12.7954	12.6515	0.308405	0.230212
12.7958	12.652	0.310619	0.229117
12.7963	12.6524	0.311996	0.227736
12.7968	12.6529	0.31132	0.228134
12.7972	12.6534	0.31162	0.22582
12.7977	12.6538	0.310894	0.222933
12.7982	12.6543	0.31187	0.220135
12.7987	12.6548	0.312369	0.218979
12.7991	12.6553	0.313892	0.219893
12.7996	12.6557	0.312884	0.219141
12.8001	12.6562	0.309911	0.213836
12.8006	12.6567	0.313674	0.215164
12.801	12.6572	0.315238	0.21675
12.8015	12.6576	0.313942	0.216449
12.802	12.6581	0.313124	0.216024
12.8024	12.6586	0.313212	0.216395
12.8029	12.6591	0.312945	0.216506
12.8034	12.6595	0.313499	0.216917
12.8039	12.66	0.31529	0.220968
12.8043	12.6605	0.315087	0.222359
12.8048	12.6609	0.313659	0.220442
12.8053	12.6614	0.314702	0.222192
12.8057	12.6619	0.315886	0.224927
12.8062	12.6623	0.315508	0.227016
12.8067	12.6628	0.316306	0.230462
12.8072	12.6633	0.314332	0.22944
12.8076	12.6637	0.314101	0.229924
12.8081	12.6642	0.316559	0.233494
12.8086	12.6647	0.317908	0.236448
12.8091	12.6652	0.314901	0.237108
12.8095	12.6656	0.315168	0.237535
12.81	12.6661	0.316587	0.239347
12.8105	12.6666	0.317844	0.243261
12.8109	12.6671	0.317085	0.246762
12.8114	12.6675	0.315403	0.247599
12.8119	12.668	0.317364	0.247941
12.8124	12.6685	0.316798	0.249313
12.8128	12.6689	0.316691	0.251147
12.8133	12.6694	0.317993	0.2576
12.8138	12.6699	0.318109	0.259009
12.8142	12.6703	0.315087	0.25731
12.8147	12.6708	0.314759	0.258653
12.8152	12.6713	0.319871	0.264227
12.8157	12.6718	0.318231	0.265076
12.8161	12.6722	0.31678	0.266174
12.8166	12.6727	0.318673	0.266665
12.8171	12.6731	0.318862	0.268153
12.8176	12.6736	0.3174	0.269485
12.818	12.6741	0.319365	0.272045
12.8185	12.6746	0.319191	0.274111
12.819	12.675	0.316393	0.271519
12.8194	12.6755	0.317241	0.27215
12.8199	12.676	0.319312	0.274526
12.8204	12.6765	0.31771	0.274508
12.8209	12.677	0.317329	0.275032
12.8213	12.6775	0.318835	0.276426
12.8218	12.6779	0.31753	0.274149
12.8223	12.6784	0.318962	0.273473
12.8227	12.6789	0.321292	0.278089
12.8232	12.6793	0.321399	0.276509
12.8237	12.6798	0.317208	0.271894
12.8242	12.6803	0.320751	0.270724
12.8246	12.6807	0.321617	0.270793
12.8251	12.6812	0.318904	0.267573
12.8256	12.6817	0.319207	0.266847
12.8261	12.6822	0.320639	0.261622
12.8265	12.6826	0.318487	0.257736
12.827	12.6831	0.318032	0.256094
12.8275	12.6836	0.320618	0.256482
12.8279	12.684	0.318818	0.253301
12.8284	12.6845	0.317049	0.249227
12.8289	12.685	0.319439	0.247703
12.8294	12.6855	0.320357	0.244816
12.8298	12.686	0.322125	0.244564
12.8303	12.6864	0.319954	0.240315
12.8308	12.6869	0.319019	0.234596
12.8312	12.6874	0.321125	0.23144
12.8317	12.6879	0.322232	0.22979
12.8322	12.6883	0.323083	0.227748
12.8327	12.6888	0.320733	0.223997
12.8331	12.6893	0.320287	0.21976
12.8336	12.6897	0.322272	0.219908
12.8341	12.6902	0.322333	0.221778
12.8346	12.6907	0.321518	0.223593
12.835	12.6911	0.319842	0.224749
12.8355	12.6916	0.320536	0.227451
12.836	12.6921	0.323852	0.230801
12.8364	12.6925	0.319768	0.235354
12.8369	12.693	0.321398	0.242512
12.8374	12.6935	0.323086	0.247078
12.8379	12.6939	0.320318	0.248561
12.8383	12.6944	0.321253	0.252216
12.8388	12.6949	0.323145	0.256955
12.8393	12.6954	0.321266	0.260736
12.8397	12.6958	0.318932	0.260988
12.8402	12.6963	0.319974	0.259886
12.8407	12.6968	0.320863	0.25871
12.8412	12.6973	0.320434	0.259689
12.8416	12.6977	0.322282	0.260702
12.8421	12.6982	0.321405	0.257375
12.8426	12.6987	0.320545	0.250895
12.8431	12.6991	0.322168	0.250411
12.8435	12.6996	0.322101	0.246749
12.844	12.7001	0.321068	0.244724
12.8445	12.7005	0.320926	0.239494
12.8449	12.701	0.321707	0.234936
12.8454	12.7015	0.321267	0.230621
12.8459	12.702	0.318799	0.228019
12.8464	12.7024	0.321023	0.228495
12.8468	12.7029	0.321725	0.227243
12.8473	12.7034	0.319494	0.222965
12.8478	12.7038	0.31943	0.226374
12.8482	12.7043	0.321616	0.23151
12.8487	12.7048	0.321202	0.237219
12.8492	12.7053	0.320508	0.241551
12.8497	12.7058	0.321816	0.247068
12.8501	12.7062	0.322155	0.255546
12.8506	12.7067	0.320205	0.266181
12.8511	12.7072	0.323757	0.279075
12.8516	12.7077	0.32355	0.291187
12.852	12.7082	0.320931	0.299955
12.8525	12.7086	0.323639	0.312575
12.853	12.7091	0.324233	0.327996
12.8534	12.7096	0.32305	0.342563
12.8539	12.71	0.322777	0.355857
12.8544	12.7105	0.322853	0.368376
12.8549	12.711	0.322599	0.379136
12.8553	12.7115	0.321376	0.390785
12.8558	12.7119	0.323189	0.407895
12.8563	12.7124	0.324012	0.418708
12.8567	12.7129	0.3211	0.423313
12.8572	12.7133	0.323086	0.433176
12.8577	12.7138	0.322761	0.445477
12.8582	12.7143	0.32383	0.453891
12.8586	12.7147	0.323207	0.463511
12.8591	12.7152	0.324096	0.467793
12.8596	12.7157	0.325032	0.476851
12.8601	12.7162	0.322669	0.485136
12.8605	12.7167	0.322712	0.49637
12.861	12.7171	0.32391	0.503597
12.8615	12.7176	0.320955	0.507536
12.8619	12.7181	0.323833	0.511864
12.8624	12.7185	0.321654	0.513184
12.8629	12.719	0.322109	0.511628
12.8634	12.7195	0.323223	0.509592
12.8638	12.7199	0.321453	0.501812
12.8643	12.7204	0.322144	0.497278
12.8648	12.7209	0.31962	0.495633
12.8652	12.7214	0.321664	0.503289
12.8657	12.7218	0.321598	0.508057
12.8662	12.7223	0.321293	0.519843
12.8667	12.7227	0.322185	0.541546
12.8671	12.7232	0.322059	0.578195
12.8676	12.7237	0.319873	0.619809
12.8681	12.7241	0.318468	0.670075
12.8686	12.7246	0.317483	0.72178
12.869	12.7251	0.318399	0.764208
12.8695	12.7256	0.315633	0.803236
12.87	12.726	0.318814	0.844427
12.8704	12.7265	0.320646	0.874333
12.8709	12.727	0.319147	0.886371
12.8714	12.7275	0.320332	0.902981
12.8719	12.728	0.321468	0.918694
12.8723	12.7284	0.320309	0.927742
12.8728	12.7289	0.320465	0.931457
12.8733	12.7294	0.321229	0.93952
12.8737	12.7298	0.32175	0.941164
12.8742	12.7303	0.319402	0.940719
12.8747	12.7308	0.321574	0.951751
12.8752	12.7313	0.32151	0.954284
12.8756	12.7317	0.319202	0.949605
12.8761	12.7322	0.320709	0.953644
12.8766	12.7327	0.322645	0.96234
12.8771	12.7331	0.320191	0.961466
12.8775	12.7336	0.320693	0.962298
12.878	12.7341	0.322059	0.968068
12.8785	12.7346	0.322819	0.96848
12.8789	12.735	0.321184	0.964158
12.8794	12.7355	0.321846	0.973493
12.8799	12.736	0.322842	0.97421
12.8804	12.7365	0.322231	0.972756
12.8808	12.737	0.322859	0.969268
12.8813	12.7374	0.324004	0.977013
12.8818	12.7379	0.322863	0.976688
12.8822	12.7384	0.32206	0.974949
12.8827	12.7389	0.323802	0.980305
12.8832	12.7393	0.323491	0.975924
12.8837	12.7398	0.321789	0.973811
12.8841	12.7403	0.321777	0.981896
12.8846	12.7407	0.32183	0.975499
12.8851	12.7412	0.321777	0.975254
12.8856	12.7417	0.322255	0.979207
12.886	12.7422	0.323839	0.982634
12.8865	12.7426	0.323306	0.983587
12.887	12.7431	0.323626	0.982106
12.8874	12.7435	0.325144	0.986558
12.8879	12.744	0.325563	0.986434
12.8884	12.7445	0.323339	0.980318
12.8889	12.745	0.324459	0.990656
12.8893	12.7454	0.323715	0.987987
12.8898	12.7459	0.322459	0.983031
12.8903	12.7464	0.324177	0.986629
12.8907	12.7469	0.324755	0.985987
12.8912	12.7474	0.322798	0.986448
12.8917	12.7478	0.324924	0.987494
12.8922	12.7483	0.325874	0.994804
12.8926	12.7488	0.325101	0.988637
12.8931	12.7492	0.324059	0.987973
12.8936	12.7497	0.326325	0.997788
12.8941	12.7502	0.325312	0.988441
12.8945	12.7506	0.324134	0.983449
12.895	12.7511	0.326023	0.988992
12.8955	12.7516	0.324014	0.988581
12.8959	12.752	0.322851	0.988817
12.8964	12.7525	0.322857	0.986404
12.8969	12.753	0.326114	0.991384
12.8974	12.7534	0.322669	0.984876
12.8978	12.7539	0.322521	0.985799
12.8983	12.7544	0.324718	0.994719
12.8988	12.7548	0.324964	0.993725
