# 1304     AichiSR QXAFS
# Start     : 8.9544
# End       : 9.0544
# Dir       : Forward
# Points    : 300
# ScanTime  : 1.01549
# Date      : 13.04.23 22:20
# Ring Cur. : 25.5[mA]
12.7557	12.7557	0.404617	1.22873
12.7562	12.7552	0.402351	1.22925
12.7566	12.7548	0.403043	1.22806
12.7571	12.7543	0.402865	1.22548
12.7576	12.7538	0.4035	1.2294
12.7581	12.7533	0.401902	1.22467
12.7585	12.7529	0.403172	1.22923
12.759	12.7524	0.402174	1.22454
12.7595	12.752	0.401923	1.22359
12.7599	12.7515	0.402794	1.22704
12.7604	12.751	0.403851	1.22893
12.7609	12.7505	0.40228	1.22975
12.7614	12.7501	0.403191	1.22337
12.7618	12.7496	0.402053	1.22497
12.7623	12.7491	0.403547	1.22308
12.7628	12.7487	0.402356	1.22632
12.7632	12.7482	0.401691	1.22622
12.7637	12.7477	0.402115	1.22451
12.7642	12.7473	0.401392	1.21907
12.7647	12.7468	0.402823	1.22276
12.7651	12.7463	0.403693	1.22447
12.7656	12.7458	0.401424	1.22311
12.7661	12.7454	0.400598	1.21833
12.7666	12.7449	0.401418	1.22044
12.767	12.7444	0.402045	1.21967
12.7675	12.7439	0.402264	1.22085
12.768	12.7435	0.401265	1.22145
12.7684	12.743	0.400791	1.21906
12.7689	12.7425	0.4016	1.21399
12.7694	12.7421	0.403232	1.21652
12.7699	12.7416	0.402137	1.22055
12.7703	12.7411	0.400365	1.21699
12.7708	12.7406	0.400033	1.21507
12.7713	12.7402	0.402282	1.21367
12.7717	12.7397	0.403148	1.21427
12.7722	12.7392	0.402275	1.21563
12.7727	12.7388	0.401665	1.21599
12.7732	12.7383	0.400326	1.21068
12.7736	12.7378	0.399687	1.20776
12.7741	12.7374	0.401886	1.21096
12.7746	12.7369	0.402805	1.21122
12.7751	12.7364	0.399384	1.20548
12.7755	12.7359	0.399536	1.20448
12.776	12.7354	0.401184	1.20405
12.7765	12.735	0.40006	1.20073
12.7769	12.7345	0.400755	1.20545
12.7774	12.734	0.399858	1.20276
12.7779	12.7335	0.399446	1.19775
12.7784	12.7331	0.399033	1.19467
12.7788	12.7326	0.40068	1.19197
12.7793	12.7321	0.4014	1.19673
12.7798	12.7317	0.398558	1.19105
12.7802	12.7312	0.398986	1.18538
12.7807	12.7307	0.398984	1.18256
12.7812	12.7302	0.398519	1.17731
12.7817	12.7297	0.400514	1.17717
12.7821	12.7293	0.397737	1.17258
12.7826	12.7288	0.398448	1.16482
12.7831	12.7284	0.398422	1.15347
12.7836	12.7279	0.398533	1.14815
12.784	12.7274	0.39938	1.14218
12.7845	12.7269	0.397104	1.12629
12.785	12.7265	0.396436	1.1073
12.7854	12.726	0.396566	1.08407
12.7859	12.7255	0.394384	1.05405
12.7864	12.725	0.394042	1.01874
12.7869	12.7245	0.393203	0.969924
12.7873	12.7241	0.392454	0.912252
12.7878	12.7236	0.394011	0.848508
12.7883	12.7231	0.394803	0.790024
12.7887	12.7227	0.397172	0.738812
12.7892	12.7222	0.395574	0.692849
12.7897	12.7217	0.396375	0.655023
12.7902	12.7213	0.397649	0.634694
12.7906	12.7208	0.398314	0.622007
12.7911	12.7203	0.399165	0.616523
12.7916	12.7199	0.397187	0.616602
12.7921	12.7194	0.397697	0.617163
12.7925	12.7189	0.397018	0.621761
12.793	12.7185	0.397991	0.626149
12.7935	12.718	0.399445	0.631643
12.7939	12.7175	0.397416	0.630143
12.7944	12.7171	0.396601	0.625778
12.7949	12.7166	0.397119	0.618908
12.7954	12.7161	0.397521	0.61023
12.7958	12.7156	0.397934	0.601762
12.7963	12.7151	0.39493	0.590561
12.7968	12.7147	0.396651	0.57747
12.7972	12.7142	0.398312	0.56595
12.7977	12.7137	0.396989	0.556373
12.7982	12.7132	0.397676	0.549701
12.7987	12.7128	0.396023	0.537503
12.7991	12.7123	0.397176	0.526367
12.7996	12.7118	0.396244	0.512216
12.8001	12.7114	0.39657	0.499731
12.8006	12.7109	0.397051	0.48847
12.801	12.7104	0.396765	0.474054
12.8015	12.7099	0.396431	0.454091
12.802	12.7095	0.396371	0.439751
12.8024	12.709	0.396845	0.42434
12.8029	12.7085	0.396564	0.409589
12.8034	12.7081	0.393855	0.389976
12.8039	12.7076	0.394006	0.373028
12.8043	12.7071	0.395435	0.359084
12.8048	12.7066	0.396508	0.344026
12.8053	12.7062	0.396265	0.333071
12.8057	12.7057	0.394758	0.320597
12.8062	12.7052	0.395365	0.307969
12.8067	12.7047	0.397148	0.297794
12.8072	12.7042	0.396254	0.29118
12.8076	12.7038	0.397949	0.286176
12.8081	12.7033	0.394722	0.282049
12.8086	12.7028	0.394303	0.277064
12.8091	12.7024	0.39659	0.277147
12.8095	12.7019	0.395083	0.278154
12.81	12.7014	0.396638	0.282145
12.8105	12.7009	0.394755	0.285408
12.8109	12.7005	0.393807	0.287241
12.8114	12.7	0.395749	0.290871
12.8119	12.6995	0.395202	0.297044
12.8124	12.6991	0.395188	0.301411
12.8128	12.6986	0.393034	0.305214
12.8133	12.6981	0.392594	0.308734
12.8138	12.6977	0.395282	0.31081
12.8142	12.6972	0.394612	0.315298
12.8147	12.6967	0.395307	0.31852
12.8152	12.6962	0.393918	0.319586
12.8157	12.6958	0.393238	0.318548
12.8161	12.6953	0.393857	0.317367
12.8166	12.6948	0.39496	0.31805
12.8171	12.6943	0.394177	0.316661
12.8176	12.6939	0.392277	0.311361
12.818	12.6934	0.392349	0.30569
12.8185	12.6929	0.394289	0.300029
12.819	12.6925	0.393139	0.29596
12.8194	12.692	0.393306	0.291402
12.8199	12.6915	0.393213	0.284804
12.8204	12.6911	0.392653	0.277804
12.8209	12.6906	0.393144	0.274596
12.8213	12.6901	0.391971	0.272419
12.8218	12.6897	0.392437	0.27178
12.8223	12.6892	0.390562	0.269085
12.8227	12.6887	0.392076	0.27029
12.8232	12.6883	0.393201	0.270867
12.8237	12.6878	0.392055	0.274083
12.8242	12.6873	0.392007	0.279115
12.8246	12.6868	0.390081	0.282954
12.8251	12.6864	0.391261	0.285797
12.8256	12.6859	0.39025	0.288122
12.8261	12.6854	0.390244	0.293972
12.8265	12.6849	0.38996	0.299316
12.827	12.6844	0.387042	0.30022
12.8275	12.684	0.388457	0.304094
12.8279	12.6835	0.390268	0.304979
12.8284	12.683	0.388758	0.309198
12.8289	12.6826	0.389821	0.313821
12.8294	12.6821	0.388944	0.315341
12.8298	12.6816	0.389386	0.317547
12.8303	12.6811	0.391109	0.321107
12.8308	12.6807	0.390018	0.32474
12.8312	12.6802	0.389917	0.329289
12.8317	12.6797	0.389139	0.330501
12.8322	12.6793	0.388588	0.330737
12.8327	12.6788	0.390344	0.331986
12.8331	12.6783	0.38952	0.335215
12.8336	12.6779	0.390639	0.338342
12.8341	12.6774	0.388851	0.337455
12.8346	12.6769	0.388824	0.33538
12.835	12.6764	0.391029	0.335557
12.8355	12.6759	0.390039	0.335493
12.836	12.6755	0.389378	0.336522
12.8364	12.675	0.38932	0.334985
12.8369	12.6745	0.388232	0.330923
12.8374	12.674	0.389164	0.332514
12.8379	12.6735	0.389075	0.330643
12.8383	12.6731	0.388705	0.331271
12.8388	12.6726	0.389031	0.330206
12.8393	12.6722	0.388362	0.326245
12.8397	12.6717	0.389418	0.324231
12.8402	12.6712	0.38948	0.322881
12.8407	12.6707	0.389296	0.323498
12.8412	12.6703	0.387749	0.321158
12.8416	12.6698	0.38684	0.316095
12.8421	12.6693	0.392087	0.316369
12.8426	12.6689	0.392482	0.316549
12.8431	12.6684	0.390177	0.311039
12.8435	12.6679	0.388273	0.308201
12.844	12.6675	0.386847	0.303915
12.8445	12.667	0.389131	0.301881
12.8449	12.6665	0.387568	0.299704
12.8454	12.666	0.388658	0.29931
12.8459	12.6656	0.388178	0.29672
12.8464	12.6651	0.38702	0.291196
12.8468	12.6646	0.389275	0.289911
12.8473	12.6641	0.388429	0.288712
12.8478	12.6637	0.387902	0.287305
12.8482	12.6632	0.387441	0.285318
12.8487	12.6627	0.387366	0.280581
12.8492	12.6623	0.388041	0.279167
12.8497	12.6618	0.388709	0.278045
12.8501	12.6613	0.386123	0.276965
12.8506	12.6609	0.38542	0.274707
12.8511	12.6604	0.387374	0.271747
12.8516	12.6599	0.387317	0.270986
12.852	12.6595	0.387941	0.269433
12.8525	12.659	0.387545	0.269674
12.853	12.6585	0.386405	0.268988
12.8534	12.6581	0.386915	0.266045
12.8539	12.6576	0.388302	0.265959
12.8544	12.6571	0.388048	0.265769
12.8549	12.6566	0.386893	0.268253
12.8553	12.6561	0.386794	0.267548
12.8558	12.6557	0.387324	0.26669
12.8563	12.6552	0.388213	0.267577
12.8567	12.6547	0.388629	0.270841
12.8572	12.6542	0.387823	0.273459
12.8577	12.6537	0.38882	0.275096
12.8582	12.6533	0.387717	0.276108
12.8586	12.6528	0.390278	0.278036
12.8591	12.6523	0.389353	0.280557
12.8596	12.6519	0.388556	0.284175
12.8601	12.6514	0.390434	0.285432
12.8605	12.6509	0.389302	0.286917
12.861	12.6504	0.389625	0.289556
12.8615	12.65	0.389872	0.292989
12.8619	12.6495	0.387882	0.295214
12.8624	12.649	0.388265	0.297747
12.8629	12.6486	0.388282	0.299113
12.8634	12.6481	0.389168	0.301347
12.8638	12.6476	0.388456	0.303809
12.8643	12.6471	0.387674	0.306881
12.8648	12.6467	0.386936	0.306468
12.8652	12.6462	0.385965	0.304701
12.8657	12.6457	0.386364	0.30747
12.8662	12.6452	0.385901	0.30893
12.8667	12.6447	0.384408	0.311685
12.8671	12.6443	0.388088	0.311597
12.8676	12.6438	0.387731	0.312944
12.8681	12.6433	0.38755	0.313102
12.8686	12.6429	0.38962	0.315942
12.869	12.6424	0.388424	0.317019
12.8695	12.6419	0.388273	0.317027
12.87	12.6415	0.387919	0.315757
12.8704	12.641	0.391488	0.317216
12.8709	12.6405	0.39093	0.318624
12.8714	12.6401	0.390331	0.318911
12.8719	12.6396	0.389753	0.318949
12.8723	12.6391	0.388949	0.315717
12.8728	12.6387	0.390473	0.315715
12.8733	12.6382	0.388827	0.317633
12.8737	12.6377	0.388734	0.31641
12.8742	12.6373	0.38903	0.314065
12.8747	12.6368	0.387412	0.312406
12.8752	12.6363	0.391238	0.312996
12.8756	12.6358	0.39043	0.313779
12.8761	12.6354	0.388661	0.313025
12.8766	12.6349	0.388614	0.311014
12.8771	12.6344	0.389132	0.310629
12.8775	12.6339	0.390172	0.310131
12.878	12.6335	0.38933	0.311188
12.8785	12.633	0.38841	0.311403
12.8789	12.6325	0.388329	0.310445
12.8794	12.6321	0.389584	0.308153
12.8799	12.6316	0.390651	0.309857
12.8804	12.6311	0.391046	0.310274
12.8808	12.6306	0.388674	0.31167
12.8813	12.6302	0.388853	0.312102
12.8818	12.6297	0.389232	0.31049
12.8822	12.6292	0.390255	0.310358
12.8827	12.6288	0.389457	0.312171
12.8832	12.6283	0.389388	0.312822
12.8837	12.6278	0.389112	0.311544
12.8841	12.6273	0.389579	0.310893
12.8846	12.6269	0.389511	0.309481
12.8851	12.6264	0.38988	0.311291
12.8856	12.6259	0.388753	0.310872
12.886	12.6254	0.389211	0.308847
12.8865	12.6249	0.389582	0.307554
12.887	12.6245	0.389191	0.307109
12.8874	12.624	0.389141	0.3091
12.8879	12.6235	0.389077	0.306847
12.8884	12.623	0.388334	0.305637
12.8889	12.6226	0.388253	0.303739
12.8893	12.6221	0.389778	0.304464
12.8898	12.6217	0.390217	0.305322
12.8903	12.6212	0.388009	0.304545
12.8907	12.6207	0.387625	0.302974
12.8912	12.6202	0.389547	0.301789
12.8917	12.6197	0.387841	0.301987
12.8922	12.6193	0.38834	0.30254
12.8926	12.6188	0.38898	0.304061
12.8931	12.6184	0.388698	0.302099
12.8936	12.6179	0.389668	0.300471
12.8941	12.6174	0.389922	0.301068
12.8945	12.6169	0.388012	0.302294
12.895	12.6164	0.387613	0.301509
12.8955	12.616	0.388108	0.301117
12.8959	12.6155	0.38789	0.300567
12.8964	12.615	0.38846	0.300933
12.8969	12.6145	0.389255	0.303212
12.8974	12.6141	0.389342	0.301864
12.8978	12.6136	0.386558	0.299358
12.8983	12.6131	0.388952	0.297525
12.8988	12.6127	0.388427	0.297629
