# 1304     AichiSR QXAFS
# Start     : 8.9544
# End       : 9.0544
# Dir       : Backward
# Points    : 300
# ScanTime  : 1.01549
# Date      : 13.04.23 22:24
# Ring Cur. : 25.4[mA]
12.7557	12.6118	0.306669	0.235217
12.7562	12.6122	0.304086	0.234027
12.7566	12.6127	0.306543	0.233841
12.7571	12.6131	0.30566	0.235344
12.7576	12.6136	0.306509	0.235899
12.7581	12.6141	0.306284	0.237709
12.7585	12.6145	0.308587	0.24088
12.759	12.615	0.30595	0.238486
12.7595	12.6155	0.305762	0.237124
12.7599	12.616	0.307901	0.239609
12.7604	12.6165	0.309372	0.241715
12.7609	12.6169	0.307521	0.241385
12.7614	12.6174	0.308703	0.240141
12.7618	12.6179	0.308024	0.239893
12.7623	12.6184	0.305984	0.237762
12.7628	12.6188	0.309141	0.242399
12.7632	12.6193	0.307302	0.242121
12.7637	12.6198	0.307023	0.240507
12.7642	12.6202	0.306804	0.23679
12.7647	12.6207	0.310833	0.24106
12.7651	12.6212	0.307787	0.241249
12.7656	12.6217	0.305487	0.24153
12.7661	12.6221	0.309011	0.242255
12.7666	12.6226	0.309816	0.241534
12.767	12.6231	0.310817	0.241224
12.7675	12.6235	0.307115	0.242144
12.768	12.624	0.30768	0.245409
12.7684	12.6245	0.309868	0.244871
12.7689	12.625	0.306604	0.243795
12.7694	12.6254	0.30964	0.245698
12.7699	12.6259	0.309142	0.246679
12.7703	12.6264	0.308768	0.248193
12.7708	12.6269	0.308801	0.246701
12.7713	12.6274	0.307357	0.246565
12.7717	12.6278	0.307384	0.246685
12.7722	12.6283	0.308459	0.24757
12.7727	12.6288	0.307726	0.248099
12.7732	12.6292	0.30763	0.247708
12.7736	12.6297	0.310223	0.246851
12.7741	12.6302	0.311511	0.247805
12.7746	12.6306	0.308486	0.249113
12.7751	12.6311	0.309132	0.248663
12.7755	12.6316	0.309957	0.24736
12.776	12.6321	0.310179	0.247022
12.7765	12.6325	0.309074	0.246115
12.7769	12.633	0.309228	0.247536
12.7774	12.6335	0.311765	0.249141
12.7779	12.6339	0.310774	0.24747
12.7784	12.6344	0.309501	0.246784
12.7788	12.6349	0.310148	0.247573
12.7793	12.6354	0.311072	0.249342
12.7798	12.6358	0.310339	0.250759
12.7802	12.6363	0.309696	0.248782
12.7807	12.6368	0.310774	0.24775
12.7812	12.6373	0.309662	0.249816
12.7817	12.6377	0.310756	0.25142
12.7821	12.6382	0.311653	0.252478
12.7826	12.6387	0.311285	0.251855
12.7831	12.6391	0.311297	0.25149
12.7836	12.6396	0.311111	0.253317
12.784	12.6401	0.312433	0.254658
12.7845	12.6405	0.311411	0.255194
12.785	12.641	0.312531	0.254781
12.7854	12.6415	0.311433	0.253899
12.7859	12.6419	0.310838	0.254087
12.7864	12.6424	0.310875	0.255278
12.7869	12.6429	0.311845	0.255227
12.7873	12.6433	0.309616	0.252797
12.7878	12.6438	0.310216	0.251529
12.7883	12.6443	0.310161	0.252008
12.7887	12.6447	0.3107	0.252446
12.7892	12.6452	0.307809	0.249582
12.7897	12.6457	0.30983	0.249534
12.7902	12.6462	0.31127	0.249085
12.7906	12.6467	0.310537	0.245861
12.7911	12.6472	0.31075	0.247665
12.7916	12.6476	0.311415	0.248635
12.7921	12.6481	0.311877	0.246708
12.7925	12.6486	0.311268	0.241889
12.793	12.649	0.311623	0.24129
12.7935	12.6495	0.313339	0.241441
12.7939	12.65	0.310782	0.239066
12.7944	12.6505	0.312502	0.236987
12.7949	12.6509	0.314804	0.23467
12.7954	12.6514	0.313316	0.232939
12.7958	12.6519	0.314218	0.232822
12.7963	12.6524	0.314989	0.232628
12.7968	12.6528	0.31393	0.228131
12.7972	12.6533	0.315859	0.225863
12.7977	12.6538	0.316596	0.225644
12.7982	12.6542	0.315362	0.223999
12.7987	12.6547	0.313667	0.221855
12.7991	12.6552	0.313965	0.220723
12.7996	12.6557	0.317226	0.219464
12.8001	12.6561	0.312403	0.218027
12.8006	12.6566	0.313582	0.217741
12.801	12.6571	0.314831	0.218073
12.8015	12.6576	0.314002	0.216326
12.802	12.6581	0.315192	0.217223
12.8024	12.6585	0.315484	0.217849
12.8029	12.659	0.314769	0.21932
12.8034	12.6595	0.31526	0.21897
12.8039	12.6599	0.315991	0.219924
12.8043	12.6604	0.317682	0.221425
12.8048	12.6609	0.313682	0.220272
12.8053	12.6613	0.315546	0.22509
12.8057	12.6618	0.317875	0.228039
12.8062	12.6623	0.314735	0.225905
12.8067	12.6627	0.317382	0.227857
12.8072	12.6632	0.318828	0.232414
12.8076	12.6637	0.315195	0.231992
12.8081	12.6641	0.314268	0.233762
12.8086	12.6646	0.316153	0.234928
12.8091	12.6651	0.317134	0.236283
12.8095	12.6656	0.314676	0.238413
12.81	12.666	0.316844	0.241698
12.8105	12.6665	0.317991	0.243405
12.8109	12.667	0.316482	0.24271
12.8114	12.6675	0.317372	0.245964
12.8119	12.6679	0.318005	0.249548
12.8124	12.6684	0.314581	0.251416
12.8128	12.6689	0.316149	0.251943
12.8133	12.6693	0.318029	0.254823
12.8138	12.6698	0.318305	0.256453
12.8142	12.6703	0.316297	0.257762
12.8147	12.6707	0.315051	0.260582
12.8152	12.6712	0.316893	0.263936
12.8157	12.6717	0.314348	0.262161
12.8161	12.6721	0.316503	0.263623
12.8166	12.6726	0.317985	0.268124
12.8171	12.6731	0.317722	0.268365
12.8176	12.6736	0.316125	0.268218
12.818	12.674	0.317288	0.269939
12.8185	12.6745	0.31955	0.270878
12.819	12.675	0.315721	0.271263
12.8194	12.6755	0.315655	0.272856
12.8199	12.6759	0.31847	0.274366
12.8204	12.6764	0.316209	0.272083
12.8209	12.6769	0.315803	0.273834
12.8213	12.6774	0.317424	0.275354
12.8218	12.6779	0.316442	0.274293
12.8223	12.6783	0.315559	0.272288
12.8227	12.6788	0.317905	0.271984
12.8232	12.6793	0.320072	0.272239
12.8237	12.6797	0.31572	0.272068
12.8242	12.6802	0.316595	0.270086
12.8246	12.6807	0.318346	0.26929
12.8251	12.6812	0.316892	0.264308
12.8256	12.6816	0.317339	0.261785
12.8261	12.6821	0.318204	0.260315
12.8265	12.6826	0.316397	0.25802
12.827	12.683	0.314648	0.25445
12.8275	12.6835	0.316047	0.252713
12.8279	12.684	0.316982	0.251707
12.8284	12.6844	0.314572	0.247445
12.8289	12.6849	0.3152	0.247111
12.8294	12.6854	0.316954	0.244202
12.8298	12.6859	0.317168	0.239699
12.8303	12.6864	0.320967	0.238463
12.8308	12.6868	0.323099	0.237401
12.8312	12.6873	0.316722	0.233068
12.8317	12.6878	0.317182	0.228164
12.8322	12.6883	0.317415	0.22368
12.8327	12.6887	0.319278	0.221691
12.8331	12.6892	0.318952	0.220782
12.8336	12.6897	0.316279	0.220985
12.8341	12.6901	0.31731	0.219664
12.8346	12.6906	0.316532	0.218382
12.835	12.6911	0.319052	0.22222
12.8355	12.6916	0.318362	0.227351
12.836	12.692	0.317571	0.230282
12.8364	12.6925	0.318129	0.232099
12.8369	12.6929	0.318287	0.237046
12.8374	12.6934	0.319518	0.242249
12.8379	12.6939	0.317882	0.247341
12.8383	12.6943	0.316764	0.25149
12.8388	12.6948	0.317958	0.253392
12.8393	12.6953	0.317759	0.255756
12.8397	12.6958	0.318605	0.257714
12.8402	12.6963	0.318387	0.259243
12.8407	12.6967	0.317415	0.260581
12.8412	12.6972	0.317615	0.255873
12.8416	12.6977	0.317775	0.255115
12.8421	12.6981	0.321019	0.25535
12.8426	12.6986	0.319325	0.252145
12.8431	12.6991	0.317417	0.249916
12.8435	12.6995	0.319706	0.245181
12.844	12.7	0.321253	0.241896
12.8445	12.7005	0.31917	0.237575
12.8449	12.701	0.320708	0.236433
12.8454	12.7014	0.319282	0.232616
12.8459	12.7019	0.316928	0.227624
12.8464	12.7024	0.320271	0.225648
12.8468	12.7028	0.321176	0.226803
12.8473	12.7033	0.319184	0.226076
12.8478	12.7038	0.318563	0.22784
12.8482	12.7043	0.322272	0.230644
12.8487	12.7047	0.322294	0.233678
12.8492	12.7052	0.320776	0.239549
12.8497	12.7057	0.322788	0.250086
12.8501	12.7062	0.322231	0.258038
12.8506	12.7067	0.320673	0.264718
12.8511	12.7071	0.322941	0.276417
12.8516	12.7076	0.324014	0.289763
12.852	12.7081	0.323082	0.300402
12.8525	12.7086	0.322398	0.31446
12.853	12.709	0.323183	0.328022
12.8534	12.7095	0.32418	0.341133
12.8539	12.71	0.322719	0.356543
12.8544	12.7104	0.323864	0.371249
12.8549	12.7109	0.322836	0.383894
12.8553	12.7114	0.322432	0.393596
12.8558	12.7119	0.324041	0.406232
12.8563	12.7123	0.326508	0.418879
12.8567	12.7128	0.324857	0.428716
12.8572	12.7132	0.324307	0.438949
12.8577	12.7137	0.325328	0.445392
12.8582	12.7142	0.326133	0.452794
12.8586	12.7147	0.324745	0.462547
12.8591	12.7152	0.325055	0.473723
12.8596	12.7156	0.324953	0.481393
12.8601	12.7161	0.32279	0.486102
12.8605	12.7166	0.324207	0.497107
12.861	12.7171	0.32627	0.507398
12.8615	12.7175	0.325441	0.513441
12.8619	12.718	0.324466	0.516571
12.8624	12.7185	0.32695	0.517168
12.8629	12.7189	0.325835	0.515581
12.8634	12.7194	0.324375	0.509864
12.8638	12.7199	0.326631	0.510615
12.8643	12.7203	0.324909	0.507352
12.8648	12.7208	0.323662	0.501965
12.8652	12.7213	0.326783	0.505137
12.8657	12.7218	0.325864	0.513828
12.8662	12.7222	0.323794	0.523614
12.8667	12.7227	0.323377	0.551117
12.8671	12.7231	0.323489	0.584753
12.8676	12.7236	0.324142	0.623552
12.8681	12.7241	0.321194	0.673522
12.8686	12.7245	0.323014	0.731254
12.869	12.725	0.320922	0.774551
12.8695	12.7255	0.320569	0.813231
12.87	12.726	0.323888	0.854833
12.8704	12.7265	0.32488	0.88237
12.8709	12.7269	0.32335	0.898647
12.8714	12.7274	0.324517	0.916965
12.8719	12.7279	0.325825	0.928034
12.8723	12.7284	0.326307	0.935063
12.8728	12.7288	0.3253	0.944402
12.8733	12.7293	0.326244	0.952781
12.8737	12.7298	0.323522	0.954773
12.8742	12.7302	0.32421	0.953531
12.8747	12.7307	0.329154	0.96653
12.8752	12.7312	0.327535	0.968041
12.8756	12.7317	0.325385	0.964718
12.8761	12.7321	0.326283	0.971773
12.8766	12.7326	0.327154	0.975324
12.8771	12.7331	0.328284	0.97955
12.8775	12.7335	0.327348	0.977445
12.878	12.734	0.328227	0.985164
12.8785	12.7345	0.327073	0.986276
12.8789	12.735	0.326501	0.978521
12.8794	12.7355	0.328752	0.987157
12.8799	12.7359	0.328323	0.989276
12.8804	12.7364	0.328582	0.989178
12.8808	12.7369	0.327935	0.989806
12.8813	12.7374	0.327385	0.986993
12.8818	12.7379	0.329949	0.991849
12.8822	12.7383	0.328129	0.992281
12.8827	12.7388	0.32984	0.999046
12.8832	12.7393	0.328673	0.996812
12.8837	12.7397	0.328826	0.995189
12.8841	12.7402	0.331933	1.00109
12.8846	12.7407	0.329776	0.999348
12.8851	12.7411	0.330326	1.00095
12.8856	12.7416	0.328719	0.998857
12.886	12.7421	0.329656	0.998368
12.8865	12.7426	0.330607	1.00252
12.887	12.743	0.32858	1.00124
12.8874	12.7435	0.330272	1.00459
12.8879	12.744	0.329072	1.00352
12.8884	12.7444	0.329557	1.00313
12.8889	12.7449	0.331572	1.00601
12.8893	12.7454	0.331666	1.00738
12.8898	12.7459	0.331875	1.01061
12.8903	12.7463	0.331472	1.00882
12.8907	12.7468	0.331346	1.0067
12.8912	12.7473	0.333767	1.00905
12.8917	12.7478	0.332549	1.00878
12.8922	12.7482	0.331547	1.01258
12.8926	12.7487	0.33061	1.01034
12.8931	12.7492	0.328241	1.00368
12.8936	12.7496	0.331648	1.00942
12.8941	12.7501	0.33324	1.01619
12.8945	12.7506	0.330359	1.01157
12.895	12.751	0.330021	1.01055
12.8955	12.7515	0.334233	1.01466
12.8959	12.752	0.333082	1.01324
12.8964	12.7524	0.332391	1.0111
12.8969	12.7529	0.333273	1.01761
12.8974	12.7534	0.332969	1.01093
12.8978	12.7538	0.330221	1.00832
12.8983	12.7543	0.334109	1.01566
12.8988	12.7548	0.333948	1.01953
