# 1304     AichiSR QXAFS
# Start     : 8.9544
# End       : 9.0544
# Dir       : Backward
# Points    : 300
# ScanTime  : 1.01549
# Date      : 13.04.23 22:21
# Ring Cur. : 25.5[mA]
12.7557	12.6117	0.303381	0.230705
12.7562	12.6122	0.303288	0.23162
12.7566	12.6127	0.302841	0.232663
12.7571	12.6131	0.304377	0.236458
12.7576	12.6136	0.303648	0.23495
12.7581	12.6141	0.301737	0.233786
12.7585	12.6145	0.307192	0.236636
12.759	12.615	0.304255	0.236071
12.7595	12.6155	0.305551	0.237733
12.7599	12.616	0.305622	0.239169
12.7604	12.6164	0.305282	0.237644
12.7609	12.6169	0.306713	0.23581
12.7614	12.6174	0.30531	0.237822
12.7618	12.6179	0.307864	0.241049
12.7623	12.6183	0.30356	0.237763
12.7628	12.6188	0.3046	0.237968
12.7632	12.6193	0.306251	0.237297
12.7637	12.6197	0.303888	0.238584
12.7642	12.6202	0.303976	0.237884
12.7647	12.6207	0.305699	0.240101
12.7651	12.6212	0.305297	0.236959
12.7656	12.6216	0.306339	0.237754
12.7661	12.6221	0.308038	0.239726
12.7666	12.6226	0.306884	0.242259
12.767	12.623	0.30523	0.24188
12.7675	12.6235	0.305793	0.239573
12.768	12.624	0.308882	0.241845
12.7684	12.6245	0.307198	0.242207
12.7689	12.6249	0.304625	0.243215
12.7694	12.6254	0.304612	0.243986
12.7699	12.6259	0.305064	0.240629
12.7703	12.6264	0.30551	0.244626
12.7708	12.6269	0.306718	0.243963
12.7713	12.6273	0.305758	0.247051
12.7717	12.6278	0.304339	0.245556
12.7722	12.6283	0.305473	0.244065
12.7727	12.6288	0.307654	0.245821
12.7732	12.6292	0.306286	0.24571
12.7736	12.6297	0.307522	0.24788
12.7741	12.6301	0.305832	0.246586
12.7746	12.6306	0.306259	0.244007
12.7751	12.6311	0.307498	0.244424
12.7755	12.6316	0.308199	0.246226
12.776	12.6321	0.30741	0.246108
12.7765	12.6325	0.30698	0.245359
12.7769	12.633	0.30489	0.243595
12.7774	12.6334	0.309296	0.245753
12.7779	12.6339	0.307377	0.245801
12.7784	12.6344	0.306047	0.246836
12.7788	12.6348	0.307253	0.24642
12.7793	12.6353	0.305897	0.245756
12.7798	12.6358	0.308253	0.24661
12.7802	12.6363	0.307956	0.248601
12.7807	12.6368	0.308498	0.249907
12.7812	12.6372	0.305483	0.247555
12.7817	12.6377	0.307755	0.24699
12.7821	12.6382	0.310091	0.250383
12.7826	12.6387	0.308658	0.250966
12.7831	12.6391	0.308753	0.2521
12.7836	12.6396	0.309143	0.252058
12.784	12.64	0.30691	0.249425
12.7845	12.6405	0.307879	0.250048
12.785	12.641	0.310741	0.254038
12.7854	12.6415	0.309377	0.25442
12.7859	12.6419	0.30733	0.251517
12.7864	12.6424	0.30671	0.251022
12.7869	12.6428	0.311395	0.251951
12.7873	12.6433	0.307878	0.250834
12.7878	12.6438	0.306737	0.251671
12.7883	12.6442	0.306513	0.250839
12.7887	12.6447	0.30702	0.24804
12.7892	12.6452	0.306467	0.246824
12.7897	12.6457	0.307149	0.247451
12.7902	12.6462	0.306706	0.248282
12.7906	12.6467	0.306499	0.245192
12.7911	12.6471	0.305634	0.241804
12.7916	12.6476	0.310332	0.244137
12.7921	12.6481	0.308679	0.243891
12.7925	12.6486	0.308088	0.24195
12.793	12.649	0.309945	0.240722
12.7935	12.6495	0.309433	0.23721
12.7939	12.65	0.309692	0.234589
12.7944	12.6504	0.310892	0.235951
12.7949	12.6509	0.311042	0.235529
12.7954	12.6514	0.310384	0.231861
12.7958	12.6519	0.310379	0.226787
12.7963	12.6523	0.312157	0.227764
12.7968	12.6528	0.310004	0.226069
12.7972	12.6533	0.309736	0.225885
12.7977	12.6537	0.311564	0.223377
12.7982	12.6542	0.311309	0.21982
12.7987	12.6547	0.312264	0.218706
12.7991	12.6552	0.3103	0.218839
12.7996	12.6556	0.31178	0.218914
12.8001	12.6561	0.309922	0.216007
12.8006	12.6566	0.308695	0.212805
12.801	12.6571	0.312241	0.213561
12.8015	12.6576	0.312788	0.21657
12.802	12.658	0.311089	0.216805
12.8024	12.6585	0.310944	0.21518
12.8029	12.659	0.309275	0.213678
12.8034	12.6594	0.309981	0.215256
12.8039	12.6599	0.313065	0.218287
12.8043	12.6604	0.311931	0.220327
12.8048	12.6608	0.310107	0.219525
12.8053	12.6613	0.310734	0.219795
12.8057	12.6618	0.312587	0.220948
12.8062	12.6623	0.312759	0.224157
12.8067	12.6627	0.311811	0.226313
12.8072	12.6632	0.310982	0.227731
12.8076	12.6636	0.312271	0.227517
12.8081	12.6641	0.311514	0.22984
12.8086	12.6646	0.313935	0.233426
12.8091	12.6651	0.314073	0.234684
12.8095	12.6655	0.313117	0.234642
12.81	12.666	0.31007	0.235343
12.8105	12.6665	0.314326	0.239598
12.8109	12.667	0.311361	0.241892
12.8114	12.6674	0.312475	0.242614
12.8119	12.6679	0.313704	0.246231
12.8124	12.6684	0.313048	0.24444
12.8128	12.6689	0.314942	0.249193
12.8133	12.6693	0.315679	0.254015
12.8138	12.6698	0.31387	0.255364
12.8142	12.6702	0.313824	0.255532
12.8147	12.6707	0.312489	0.255472
12.8152	12.6712	0.315364	0.259049
12.8157	12.6717	0.312371	0.260516
12.8161	12.6721	0.312389	0.262522
12.8166	12.6726	0.313195	0.26297
12.8171	12.6731	0.313867	0.2639
12.8176	12.6735	0.312974	0.264529
12.818	12.674	0.314044	0.267473
12.8185	12.6745	0.314266	0.269546
12.819	12.675	0.313409	0.267831
12.8194	12.6754	0.313495	0.26697
12.8199	12.6759	0.315913	0.270586
12.8204	12.6764	0.313715	0.270414
12.8209	12.6769	0.313286	0.271869
12.8213	12.6774	0.315423	0.272007
12.8218	12.6779	0.315061	0.271481
12.8223	12.6783	0.313803	0.270284
12.8227	12.6788	0.315335	0.272641
12.8232	12.6792	0.316182	0.271385
12.8237	12.6797	0.315258	0.26926
12.8242	12.6802	0.315842	0.267562
12.8246	12.6807	0.317977	0.266264
12.8251	12.6811	0.317334	0.265715
12.8256	12.6816	0.314855	0.262742
12.8261	12.6821	0.316271	0.260247
12.8265	12.6825	0.316252	0.257448
12.827	12.683	0.313977	0.254936
12.8275	12.6835	0.315834	0.253489
12.8279	12.684	0.315863	0.252217
12.8284	12.6844	0.31493	0.247696
12.8289	12.6849	0.31599	0.245603
12.8294	12.6854	0.319048	0.243745
12.8298	12.6859	0.318082	0.242136
12.8303	12.6864	0.315667	0.238251
12.8308	12.6868	0.317293	0.234519
12.8312	12.6873	0.319558	0.231685
12.8317	12.6878	0.318254	0.227616
12.8322	12.6883	0.318369	0.226363
12.8327	12.6887	0.318893	0.223633
12.8331	12.6892	0.319077	0.220776
12.8336	12.6896	0.320322	0.219413
12.8341	12.6901	0.319294	0.219321
12.8346	12.6906	0.316163	0.220752
12.835	12.6911	0.316918	0.22379
12.8355	12.6915	0.320326	0.226436
12.836	12.692	0.318897	0.229037
12.8364	12.6925	0.319404	0.233602
12.8369	12.6929	0.320975	0.242393
12.8374	12.6934	0.319696	0.24612
12.8379	12.6938	0.31874	0.247735
12.8383	12.6943	0.320691	0.251287
12.8388	12.6948	0.321883	0.25505
12.8393	12.6953	0.319693	0.257852
12.8397	12.6958	0.318533	0.259103
12.8402	12.6962	0.319782	0.259952
12.8407	12.6967	0.319821	0.258748
12.8412	12.6972	0.321308	0.259565
12.8416	12.6977	0.320474	0.258764
12.8421	12.6981	0.320892	0.258386
12.8426	12.6986	0.31962	0.253369
12.8431	12.6991	0.320463	0.248971
12.8435	12.6995	0.321278	0.247074
12.844	12.7	0.321606	0.244076
12.8445	12.7004	0.319226	0.24064
12.8449	12.7009	0.320448	0.236227
12.8454	12.7014	0.321998	0.230933
12.8459	12.7019	0.319337	0.228696
12.8464	12.7023	0.320998	0.228908
12.8468	12.7028	0.321239	0.228153
12.8473	12.7033	0.320214	0.224878
12.8478	12.7037	0.320637	0.227454
12.8482	12.7042	0.323713	0.231031
12.8487	12.7047	0.323572	0.235407
12.8492	12.7052	0.320272	0.241376
12.8497	12.7057	0.324085	0.248309
12.8501	12.7062	0.324227	0.256526
12.8506	12.7066	0.321672	0.266353
12.8511	12.7071	0.323996	0.278392
12.8516	12.7076	0.325009	0.289847
12.852	12.7081	0.322429	0.298195
12.8525	12.7085	0.324164	0.311775
12.853	12.709	0.325067	0.326654
12.8534	12.7095	0.323832	0.342555
12.8539	12.7099	0.324728	0.355119
12.8544	12.7104	0.324057	0.367969
12.8549	12.7109	0.326943	0.381784
12.8553	12.7114	0.323181	0.392098
12.8558	12.7118	0.324281	0.40739
12.8563	12.7123	0.324933	0.418263
12.8567	12.7128	0.324969	0.426832
12.8572	12.7132	0.325688	0.436258
12.8577	12.7137	0.325878	0.445384
12.8582	12.7142	0.324975	0.452603
12.8586	12.7147	0.323902	0.463047
12.8591	12.7151	0.325595	0.469773
12.8596	12.7156	0.325224	0.476575
12.8601	12.7161	0.324611	0.485071
12.8605	12.7166	0.324561	0.495123
12.861	12.717	0.324933	0.508107
12.8615	12.7175	0.326025	0.510785
12.8619	12.718	0.325932	0.516872
12.8624	12.7185	0.325997	0.518836
12.8629	12.7189	0.326561	0.51685
12.8634	12.7194	0.325263	0.51304
12.8638	12.7198	0.324983	0.508951
12.8643	12.7203	0.326129	0.505285
12.8648	12.7208	0.323185	0.501453
12.8652	12.7213	0.325001	0.506045
12.8657	12.7217	0.323317	0.514661
12.8662	12.7222	0.322671	0.520537
12.8667	12.7227	0.323247	0.543092
12.8671	12.7231	0.324878	0.578742
12.8676	12.7236	0.321583	0.616838
12.8681	12.7241	0.321599	0.667956
12.8686	12.7245	0.322038	0.721332
12.869	12.725	0.320603	0.765775
12.8695	12.7255	0.319105	0.805969
12.87	12.726	0.323331	0.853687
12.8704	12.7264	0.322527	0.879086
12.8709	12.7269	0.321665	0.891613
12.8714	12.7274	0.325442	0.911436
12.8719	12.7279	0.326019	0.926674
12.8723	12.7283	0.323107	0.932707
12.8728	12.7288	0.324256	0.940519
12.8733	12.7293	0.32539	0.945287
12.8737	12.7297	0.326114	0.951936
12.8742	12.7302	0.325164	0.955714
12.8747	12.7307	0.325162	0.961856
12.8752	12.7312	0.325633	0.965614
12.8756	12.7316	0.325912	0.965435
12.8761	12.7321	0.326289	0.970213
12.8766	12.7326	0.326003	0.97182
12.8771	12.733	0.324704	0.973716
12.8775	12.7335	0.325113	0.972433
12.878	12.734	0.326973	0.97651
12.8785	12.7345	0.328429	0.977178
12.8789	12.7349	0.326451	0.976364
12.8794	12.7354	0.326055	0.980683
12.8799	12.7359	0.326148	0.983916
12.8804	12.7364	0.326215	0.98318
12.8808	12.7369	0.326038	0.983247
12.8813	12.7374	0.327277	0.985692
12.8818	12.7378	0.325978	0.988155
12.8822	12.7383	0.327358	0.989439
12.8827	12.7388	0.326571	0.993573
12.8832	12.7392	0.329348	0.995574
12.8837	12.7397	0.327022	0.991475
12.8841	12.7402	0.327557	0.992255
12.8846	12.7406	0.328124	0.998251
12.8851	12.7411	0.327063	0.992963
12.8856	12.7416	0.327393	0.99021
12.886	12.7421	0.328665	0.994984
12.8865	12.7425	0.328418	0.996222
12.887	12.743	0.325982	0.991845
12.8874	12.7435	0.327804	0.995469
12.8879	12.7439	0.330116	1.00201
12.8884	12.7444	0.326211	0.995307
12.8889	12.7449	0.328653	1.00212
12.8893	12.7454	0.329086	1.00388
12.8898	12.7458	0.3288	1.00073
12.8903	12.7463	0.3313	1.00531
12.8907	12.7468	0.331039	1.00543
12.8912	12.7473	0.328175	1.00178
12.8917	12.7477	0.327617	0.999724
12.8922	12.7482	0.329517	1.00518
12.8926	12.7487	0.330042	1.00016
12.8931	12.7491	0.327051	0.996242
12.8936	12.7496	0.329266	1.00428
12.8941	12.7501	0.329267	1.00604
12.8945	12.7505	0.329446	1.00031
12.895	12.751	0.331471	1.00687
12.8955	12.7515	0.333075	1.01277
12.8959	12.752	0.328705	1.00537
12.8964	12.7524	0.329148	1.00763
12.8969	12.7529	0.330442	1.00917
12.8974	12.7533	0.332617	1.00477
12.8978	12.7538	0.328177	1.00129
12.8983	12.7543	0.329022	1.00841
12.8988	12.7548	0.32884	1.0052
