# 1304     AichiSR QXAFS
# Start     : 8.9544
# End       : 9.0544
# Dir       : Backward
# Points    : 300
# ScanTime  : 1.01549
# Date      : 13.04.23 22:23
# Ring Cur. : 25.5[mA]
12.7557	12.6118	0.302649	0.232774
12.7562	12.6122	0.302632	0.233422
12.7566	12.6127	0.304743	0.232154
12.7571	12.6131	0.305071	0.233849
12.7576	12.6136	0.303784	0.2347
12.7581	12.6141	0.305047	0.237838
12.7585	12.6145	0.307851	0.239408
12.759	12.615	0.30552	0.236256
12.7595	12.6155	0.307482	0.236432
12.7599	12.616	0.308232	0.23968
12.7604	12.6164	0.307267	0.240567
12.7609	12.6169	0.307808	0.239633
12.7614	12.6174	0.306502	0.236949
12.7618	12.6179	0.307749	0.239659
12.7623	12.6183	0.307892	0.2396
12.7628	12.6188	0.307787	0.241237
12.7632	12.6193	0.309049	0.240758
12.7637	12.6197	0.306755	0.239299
12.7642	12.6202	0.307768	0.238945
12.7647	12.6207	0.307448	0.24051
12.7651	12.6212	0.308927	0.242243
12.7656	12.6217	0.308599	0.242093
12.7661	12.6221	0.310953	0.240479
12.7666	12.6226	0.30938	0.241302
12.767	12.6231	0.309897	0.243071
12.7675	12.6235	0.309451	0.245033
12.768	12.624	0.312144	0.246901
12.7684	12.6245	0.309184	0.244903
12.7689	12.6249	0.309575	0.243205
12.7694	12.6254	0.31	0.246541
12.7699	12.6259	0.309483	0.248536
12.7703	12.6264	0.310284	0.248072
12.7708	12.6269	0.308495	0.246582
12.7713	12.6273	0.311006	0.248373
12.7717	12.6278	0.309179	0.248631
12.7722	12.6283	0.310397	0.2502
12.7727	12.6288	0.310862	0.251581
12.7732	12.6292	0.311443	0.249078
12.7736	12.6297	0.313008	0.249139
12.7741	12.6302	0.31209	0.24949
12.7746	12.6306	0.312131	0.251027
12.7751	12.6311	0.312097	0.250735
12.7755	12.6316	0.312173	0.24914
12.776	12.6321	0.312846	0.248893
12.7765	12.6325	0.31139	0.247911
12.7769	12.633	0.312778	0.25055
12.7774	12.6334	0.313072	0.250028
12.7779	12.6339	0.312883	0.249501
12.7784	12.6344	0.313294	0.249302
12.7788	12.6349	0.312817	0.250285
12.7793	12.6353	0.312744	0.251981
12.7798	12.6358	0.314103	0.251413
12.7802	12.6363	0.314765	0.252451
12.7807	12.6368	0.315476	0.253349
12.7812	12.6372	0.312955	0.2532
12.7817	12.6377	0.31406	0.255426
12.7821	12.6382	0.315218	0.255307
12.7826	12.6387	0.315346	0.254015
12.7831	12.6391	0.313826	0.253686
12.7836	12.6396	0.314896	0.256727
12.784	12.64	0.313402	0.257748
12.7845	12.6405	0.312937	0.256526
12.785	12.641	0.315343	0.257196
12.7854	12.6415	0.317192	0.25828
12.7859	12.6419	0.31204	0.257619
12.7864	12.6424	0.315059	0.259496
12.7869	12.6429	0.317446	0.259661
12.7873	12.6433	0.315386	0.256658
12.7878	12.6438	0.315103	0.255263
12.7883	12.6443	0.314643	0.256874
12.7887	12.6447	0.3129	0.254723
12.7892	12.6452	0.313151	0.251771
12.7897	12.6457	0.314206	0.252063
12.7902	12.6462	0.314968	0.250894
12.7906	12.6467	0.311957	0.250666
12.7911	12.6471	0.311968	0.250614
12.7916	12.6476	0.316263	0.251489
12.7921	12.6481	0.316838	0.247315
12.7925	12.6486	0.316657	0.246494
12.793	12.649	0.318446	0.245433
12.7935	12.6495	0.316228	0.245018
12.7939	12.65	0.317981	0.243298
12.7944	12.6504	0.318629	0.240439
12.7949	12.6509	0.319761	0.239195
12.7954	12.6514	0.317326	0.236986
12.7958	12.6519	0.317641	0.236958
12.7963	12.6523	0.317371	0.233244
12.7968	12.6528	0.317562	0.230655
12.7972	12.6533	0.320913	0.22969
12.7977	12.6537	0.319298	0.228798
12.7982	12.6542	0.319308	0.228201
12.7987	12.6547	0.319707	0.225489
12.7991	12.6552	0.319982	0.222557
12.7996	12.6557	0.322191	0.223452
12.8001	12.6561	0.320275	0.222203
12.8006	12.6566	0.318818	0.221596
12.801	12.6571	0.318585	0.219909
12.8015	12.6576	0.320334	0.219912
12.802	12.658	0.319724	0.219856
12.8024	12.6585	0.319409	0.222146
12.8029	12.659	0.320043	0.22205
12.8034	12.6594	0.319746	0.222622
12.8039	12.6599	0.320691	0.222043
12.8043	12.6604	0.321999	0.225397
12.8048	12.6609	0.320712	0.226322
12.8053	12.6613	0.31985	0.227531
12.8057	12.6618	0.320356	0.22903
12.8062	12.6623	0.321544	0.229535
12.8067	12.6627	0.322038	0.23138
12.8072	12.6632	0.321798	0.234319
12.8076	12.6636	0.322162	0.236592
12.8081	12.6641	0.32113	0.236821
12.8086	12.6646	0.323822	0.237892
12.8091	12.6651	0.324036	0.240846
12.8095	12.6656	0.321209	0.242905
12.81	12.666	0.322381	0.245288
12.8105	12.6665	0.323678	0.247078
12.8109	12.667	0.322287	0.247064
12.8114	12.6675	0.32123	0.24923
12.8119	12.6679	0.322903	0.253166
12.8124	12.6684	0.322789	0.256238
12.8128	12.6689	0.320167	0.254795
12.8133	12.6693	0.324366	0.258848
12.8138	12.6698	0.32491	0.261435
12.8142	12.6703	0.322617	0.263623
12.8147	12.6707	0.322404	0.266238
12.8152	12.6712	0.324714	0.269087
12.8157	12.6717	0.32362	0.266595
12.8161	12.6721	0.323584	0.269105
12.8166	12.6726	0.325206	0.274127
12.8171	12.6731	0.321497	0.274316
12.8176	12.6735	0.322546	0.273741
12.818	12.674	0.32416	0.274114
12.8185	12.6745	0.324833	0.275515
12.819	12.675	0.32267	0.276225
12.8194	12.6754	0.322482	0.277837
12.8199	12.6759	0.323791	0.27873
12.8204	12.6764	0.322498	0.277641
12.8209	12.6769	0.324117	0.279509
12.8213	12.6774	0.32526	0.280739
12.8218	12.6779	0.323159	0.28103
12.8223	12.6783	0.323797	0.279969
12.8227	12.6788	0.324959	0.27879
12.8232	12.6793	0.326419	0.278955
12.8237	12.6797	0.324525	0.278241
12.8242	12.6802	0.324437	0.276408
12.8246	12.6807	0.324729	0.274133
12.8251	12.6812	0.323479	0.269135
12.8256	12.6816	0.32363	0.267701
12.8261	12.6821	0.324411	0.266707
12.8265	12.6826	0.322522	0.265128
12.827	12.683	0.322715	0.259715
12.8275	12.6835	0.32474	0.257714
12.8279	12.684	0.324468	0.257644
12.8284	12.6844	0.322367	0.255155
12.8289	12.6849	0.32257	0.25193
12.8294	12.6854	0.324605	0.24866
12.8298	12.6859	0.324668	0.24497
12.8303	12.6864	0.323998	0.242845
12.8308	12.6868	0.324819	0.238777
12.8312	12.6873	0.324024	0.236281
12.8317	12.6878	0.322069	0.230473
12.8322	12.6883	0.326559	0.228922
12.8327	12.6887	0.325102	0.226966
12.8331	12.6892	0.324382	0.22594
12.8336	12.6896	0.324736	0.224896
12.8341	12.6901	0.325558	0.224128
12.8346	12.6906	0.326598	0.224312
12.835	12.6911	0.325993	0.226285
12.8355	12.6915	0.327176	0.23244
12.836	12.692	0.325199	0.234431
12.8364	12.6925	0.325154	0.238064
12.8369	12.6929	0.328173	0.243922
12.8374	12.6934	0.326047	0.247982
12.8379	12.6939	0.323944	0.251518
12.8383	12.6943	0.32561	0.25665
12.8388	12.6948	0.326351	0.25972
12.8393	12.6953	0.325909	0.26091
12.8397	12.6958	0.323644	0.261687
12.8402	12.6962	0.324771	0.265991
12.8407	12.6967	0.324137	0.265852
12.8412	12.6972	0.324723	0.26132
12.8416	12.6977	0.327327	0.261936
12.8421	12.6981	0.326041	0.259866
12.8426	12.6986	0.324749	0.256521
12.8431	12.6991	0.323866	0.254703
12.8435	12.6995	0.326076	0.250934
12.844	12.7	0.325589	0.2445
12.8445	12.7005	0.3244	0.241982
12.8449	12.7009	0.324893	0.239259
12.8454	12.7014	0.324571	0.235743
12.8459	12.7019	0.323246	0.231661
12.8464	12.7024	0.325805	0.229929
12.8468	12.7028	0.326529	0.229795
12.8473	12.7033	0.322741	0.227646
12.8478	12.7038	0.323838	0.231605
12.8482	12.7042	0.328162	0.234382
12.8487	12.7047	0.326557	0.236956
12.8492	12.7052	0.326378	0.243551
12.8497	12.7057	0.327604	0.253292
12.8501	12.7062	0.325191	0.259725
12.8506	12.7066	0.325233	0.266945
12.8511	12.7071	0.328313	0.28099
12.8516	12.7076	0.328388	0.294491
12.852	12.7081	0.325437	0.304181
12.8525	12.7086	0.324459	0.31808
12.853	12.709	0.327221	0.331372
12.8534	12.7095	0.328539	0.343905
12.8539	12.7099	0.327183	0.357932
12.8544	12.7104	0.327541	0.372137
12.8549	12.7109	0.326463	0.386714
12.8553	12.7114	0.325938	0.394941
12.8558	12.7118	0.330301	0.411408
12.8563	12.7123	0.32825	0.423347
12.8567	12.7128	0.326819	0.430695
12.8572	12.7132	0.325872	0.439829
12.8577	12.7137	0.327875	0.449381
12.8582	12.7142	0.328954	0.455981
12.8586	12.7147	0.32707	0.464411
12.8591	12.7151	0.326793	0.473727
12.8596	12.7156	0.325094	0.482185
12.8601	12.7161	0.326095	0.487399
12.8605	12.7166	0.327696	0.50096
12.861	12.7171	0.327346	0.509931
12.8615	12.7175	0.324637	0.514113
12.8619	12.718	0.325553	0.51872
12.8624	12.7185	0.324777	0.517912
12.8629	12.7189	0.327842	0.515691
12.8634	12.7194	0.326754	0.515092
12.8638	12.7199	0.325904	0.512279
12.8643	12.7203	0.324301	0.50557
12.8648	12.7208	0.324854	0.501627
12.8652	12.7213	0.327933	0.506995
12.8657	12.7217	0.326179	0.514568
12.8662	12.7222	0.323901	0.525742
12.8667	12.7227	0.323423	0.549479
12.8671	12.7231	0.323245	0.582949
12.8676	12.7236	0.325405	0.624622
12.8681	12.7241	0.322008	0.674554
12.8686	12.7245	0.320711	0.727415
12.869	12.725	0.320539	0.772934
12.8695	12.7255	0.318073	0.80892
12.87	12.726	0.323005	0.853844
12.8704	12.7264	0.323728	0.880468
12.8709	12.7269	0.321735	0.898267
12.8714	12.7274	0.321043	0.91103
12.8719	12.7279	0.324142	0.921823
12.8723	12.7284	0.326646	0.932279
12.8728	12.7288	0.324472	0.941216
12.8733	12.7293	0.325553	0.949406
12.8737	12.7297	0.323216	0.950777
12.8742	12.7302	0.322562	0.949784
12.8747	12.7307	0.324938	0.958502
12.8752	12.7312	0.327107	0.967343
12.8756	12.7317	0.321896	0.961713
12.8761	12.7321	0.322997	0.963956
12.8766	12.7326	0.325368	0.971442
12.8771	12.7331	0.326294	0.969843
12.8775	12.7335	0.324771	0.971548
12.878	12.734	0.325647	0.980861
12.8785	12.7345	0.326203	0.979544
12.8789	12.735	0.322249	0.968131
12.8794	12.7354	0.327053	0.983402
12.8799	12.7359	0.327384	0.983235
12.8804	12.7364	0.324134	0.97675
12.8808	12.7369	0.324475	0.979544
12.8813	12.7374	0.326348	0.984729
12.8818	12.7378	0.326557	0.97934
12.8822	12.7383	0.323866	0.982028
12.8827	12.7388	0.327127	0.99145
12.8832	12.7393	0.325524	0.985936
12.8837	12.7397	0.324835	0.981548
12.8841	12.7402	0.331843	1.00193
12.8846	12.7407	0.330504	0.999464
12.8851	12.7411	0.326423	0.990091
12.8856	12.7416	0.326843	0.991769
12.886	12.7421	0.326209	0.991259
12.8865	12.7425	0.327524	0.990318
12.887	12.743	0.326349	0.994725
12.8874	12.7435	0.327371	0.997811
12.8879	12.7439	0.325422	0.990722
12.8884	12.7444	0.327299	0.991798
12.8889	12.7449	0.330292	0.998618
12.8893	12.7454	0.327498	0.996133
12.8898	12.7459	0.327026	0.996078
12.8903	12.7463	0.328562	0.999419
12.8907	12.7468	0.327837	0.993836
12.8912	12.7473	0.330442	0.996511
12.8917	12.7478	0.329024	0.997525
12.8922	12.7482	0.32927	1.0023
12.8926	12.7487	0.328569	0.998994
12.8931	12.7492	0.327202	0.996966
12.8936	12.7496	0.329139	1.00146
12.8941	12.7501	0.330606	1.00711
12.8945	12.7505	0.329323	1.00413
12.895	12.751	0.327081	1.00022
12.8955	12.7515	0.32757	1.00238
12.8959	12.752	0.331801	1.00209
12.8964	12.7524	0.327324	1.00223
12.8969	12.7529	0.329734	1.00876
12.8974	12.7534	0.328967	1.00186
12.8978	12.7538	0.328993	1.00175
12.8983	12.7543	0.332082	1.00967
12.8988	12.7548	0.331543	1.01343
