# 1304     AichiSR QXAFS
# Start     : 8.9544
# End       : 9.0544
# Dir       : Forward
# Points    : 300
# ScanTime  : 1.01549
# Date      : 13.04.23 22:31
# Ring Cur. : 25.6[mA]
12.7557	12.7558	0.406397	1.24085
12.7562	12.7553	0.405812	1.24335
12.7566	12.7548	0.406289	1.24012
12.7571	12.7543	0.407366	1.23673
12.7576	12.7539	0.407306	1.2399
12.7581	12.7534	0.406249	1.24007
12.7585	12.7529	0.406378	1.24142
12.759	12.7525	0.40565	1.23679
12.7595	12.752	0.405707	1.23812
12.7599	12.7516	0.406438	1.23591
12.7604	12.7511	0.407394	1.23967
12.7609	12.7506	0.406711	1.23851
12.7614	12.7501	0.405012	1.23705
12.7618	12.7497	0.405594	1.23713
12.7623	12.7492	0.406838	1.23537
12.7628	12.7488	0.40511	1.24014
12.7632	12.7483	0.406338	1.23804
12.7637	12.7478	0.406222	1.23508
12.7642	12.7473	0.4045	1.23384
12.7647	12.7469	0.406987	1.23655
12.7651	12.7464	0.404862	1.23867
12.7656	12.7459	0.405183	1.23488
12.7661	12.7454	0.405834	1.23606
12.7666	12.745	0.40701	1.23235
12.767	12.7445	0.407034	1.23315
12.7675	12.744	0.407089	1.23634
12.768	12.7435	0.40464	1.23608
12.7684	12.7431	0.405917	1.23015
12.7689	12.7426	0.40623	1.23064
12.7694	12.7421	0.405801	1.22989
12.7699	12.7417	0.405327	1.23143
12.7703	12.7412	0.404963	1.23097
12.7708	12.7407	0.40299	1.22972
12.7713	12.7402	0.403683	1.22757
12.7717	12.7398	0.406708	1.22699
12.7722	12.7393	0.406672	1.22774
12.7727	12.7388	0.404278	1.22717
12.7732	12.7384	0.404931	1.22402
12.7736	12.7379	0.404905	1.2237
12.7741	12.7374	0.406071	1.22255
12.7746	12.7369	0.406166	1.22361
12.7751	12.7365	0.402906	1.21799
12.7755	12.736	0.404345	1.2201
12.776	12.7355	0.404369	1.21942
12.7765	12.735	0.404812	1.21776
12.7769	12.7345	0.406513	1.21902
12.7774	12.7341	0.403639	1.21696
12.7779	12.7336	0.405026	1.21274
12.7784	12.7331	0.404325	1.20676
12.7788	12.7326	0.404299	1.20832
12.7793	12.7322	0.40566	1.20672
12.7798	12.7317	0.402351	1.20121
12.7802	12.7312	0.4025	1.19629
12.7807	12.7308	0.404528	1.19215
12.7812	12.7303	0.402994	1.19213
12.7817	12.7298	0.402118	1.19157
12.7821	12.7294	0.401921	1.18647
12.7826	12.7289	0.4033	1.17779
12.7831	12.7284	0.403695	1.17078
12.7836	12.728	0.403658	1.16474
12.784	12.7275	0.402192	1.15633
12.7845	12.727	0.401693	1.14254
12.785	12.7265	0.40052	1.12343
12.7854	12.726	0.401908	1.10294
12.7859	12.7256	0.398078	1.07607
12.7864	12.7251	0.398168	1.04267
12.7869	12.7246	0.397637	0.996778
12.7873	12.7241	0.396173	0.934806
12.7878	12.7237	0.39707	0.873552
12.7883	12.7232	0.399664	0.815912
12.7887	12.7227	0.402515	0.760873
12.7892	12.7223	0.400509	0.706358
12.7897	12.7218	0.401381	0.665402
12.7902	12.7213	0.402324	0.643639
12.7906	12.7209	0.401442	0.627551
12.7911	12.7204	0.403205	0.623322
12.7916	12.7199	0.401178	0.622839
12.7921	12.7195	0.401416	0.622212
12.7925	12.719	0.400718	0.627762
12.793	12.7185	0.402313	0.633181
12.7935	12.7181	0.402135	0.640472
12.7939	12.7176	0.400491	0.638785
12.7944	12.7171	0.400454	0.634613
12.7949	12.7166	0.401096	0.627022
12.7954	12.7162	0.402026	0.62043
12.7958	12.7157	0.401579	0.609597
12.7963	12.7152	0.400432	0.598815
12.7968	12.7147	0.39804	0.586139
12.7972	12.7143	0.400796	0.575031
12.7977	12.7138	0.400446	0.565178
12.7982	12.7133	0.401374	0.558628
12.7987	12.7128	0.400872	0.547035
12.7991	12.7124	0.400153	0.532244
12.7996	12.7119	0.401308	0.521407
12.8001	12.7114	0.398745	0.509749
12.8006	12.711	0.400938	0.498774
12.801	12.7105	0.399782	0.482286
12.8015	12.71	0.398078	0.463724
12.802	12.7095	0.401539	0.446583
12.8024	12.7091	0.401003	0.431775
12.8029	12.7086	0.400722	0.417981
12.8034	12.7082	0.400214	0.401528
12.8039	12.7077	0.400314	0.380697
12.8043	12.7072	0.399878	0.365417
12.8048	12.7067	0.39985	0.350609
12.8053	12.7062	0.399214	0.33938
12.8057	12.7058	0.400443	0.325876
12.8062	12.7053	0.399188	0.311882
12.8067	12.7048	0.398857	0.302977
12.8072	12.7043	0.399915	0.296299
12.8076	12.7038	0.401047	0.291401
12.8081	12.7034	0.399776	0.284641
12.8086	12.7029	0.398296	0.280881
12.8091	12.7024	0.402579	0.280163
12.8095	12.702	0.39982	0.280739
12.81	12.7015	0.400033	0.282942
12.8105	12.701	0.399924	0.28644
12.8109	12.7005	0.399144	0.288319
12.8114	12.7001	0.399395	0.292146
12.8119	12.6996	0.399146	0.29869
12.8124	12.6991	0.398088	0.304052
12.8128	12.6987	0.398989	0.308097
12.8133	12.6982	0.397998	0.309672
12.8138	12.6977	0.400536	0.315016
12.8142	12.6973	0.398759	0.319178
12.8147	12.6968	0.398138	0.321874
12.8152	12.6963	0.397908	0.323819
12.8157	12.6958	0.398043	0.322191
12.8161	12.6954	0.400062	0.322327
12.8166	12.6949	0.397267	0.320784
12.8171	12.6944	0.398192	0.321603
12.8176	12.6939	0.396702	0.315956
12.818	12.6935	0.397429	0.310776
12.8185	12.693	0.399504	0.306674
12.819	12.6925	0.397607	0.300593
12.8194	12.6921	0.397169	0.29618
12.8199	12.6916	0.396712	0.289418
12.8204	12.6911	0.397017	0.282984
12.8209	12.6907	0.398624	0.278912
12.8213	12.6902	0.39693	0.275736
12.8218	12.6897	0.396183	0.274327
12.8223	12.6893	0.397243	0.272721
12.8227	12.6888	0.395293	0.272349
12.8232	12.6883	0.398198	0.274692
12.8237	12.6879	0.397053	0.277719
12.8242	12.6874	0.394006	0.280748
12.8246	12.6869	0.393963	0.284301
12.8251	12.6864	0.395239	0.286496
12.8256	12.686	0.393587	0.290864
12.8261	12.6855	0.395941	0.296407
12.8265	12.685	0.393923	0.301419
12.827	12.6845	0.393058	0.303025
12.8275	12.684	0.392575	0.304739
12.8279	12.6836	0.395169	0.310175
12.8284	12.6831	0.393102	0.313203
12.8289	12.6826	0.394565	0.317889
12.8294	12.6822	0.394101	0.318746
12.8298	12.6817	0.393708	0.31965
12.8303	12.6812	0.394693	0.3239
12.8308	12.6807	0.396535	0.328214
12.8312	12.6803	0.394186	0.332496
12.8317	12.6798	0.394305	0.333566
12.8322	12.6793	0.39401	0.335336
12.8327	12.6789	0.396208	0.337411
12.8331	12.6784	0.394801	0.339913
12.8336	12.6779	0.393427	0.340605
12.8341	12.6774	0.394585	0.33988
12.8346	12.677	0.392207	0.337683
12.835	12.6765	0.393976	0.338954
12.8355	12.676	0.394447	0.340389
12.836	12.6755	0.393057	0.341022
12.8364	12.675	0.39226	0.338078
12.8369	12.6746	0.393029	0.335143
12.8374	12.6741	0.394244	0.335999
12.8379	12.6736	0.395234	0.335478
12.8383	12.6731	0.392631	0.334687
12.8388	12.6727	0.392932	0.333386
12.8393	12.6722	0.393569	0.329893
12.8397	12.6718	0.394814	0.329396
12.8402	12.6713	0.394911	0.32973
12.8407	12.6708	0.39287	0.327021
12.8412	12.6703	0.393191	0.323359
12.8416	12.6699	0.391442	0.320719
12.8421	12.6694	0.392623	0.319322
12.8426	12.6689	0.393223	0.319037
12.8431	12.6685	0.390762	0.314054
12.8435	12.668	0.392825	0.310425
12.844	12.6675	0.392176	0.308605
12.8445	12.6671	0.391812	0.306249
12.8449	12.6666	0.392892	0.304588
12.8454	12.6661	0.391616	0.302265
12.8459	12.6656	0.392313	0.298822
12.8464	12.6651	0.392345	0.295048
12.8468	12.6647	0.395787	0.29644
12.8473	12.6642	0.395592	0.295805
12.8478	12.6637	0.390795	0.291367
12.8482	12.6633	0.392072	0.28875
12.8487	12.6628	0.39144	0.284269
12.8492	12.6623	0.392211	0.283882
12.8497	12.6619	0.391744	0.283755
12.8501	12.6614	0.391176	0.280121
12.8506	12.6609	0.391464	0.277924
12.8511	12.6605	0.390313	0.274643
12.8516	12.66	0.391103	0.272455
12.852	12.6595	0.389997	0.273615
12.8525	12.6591	0.389245	0.272335
12.853	12.6586	0.389493	0.269173
12.8534	12.6581	0.390667	0.268399
12.8539	12.6577	0.389731	0.267426
12.8544	12.6572	0.39097	0.268124
12.8549	12.6567	0.388464	0.270166
12.8553	12.6562	0.38976	0.268911
12.8558	12.6557	0.389225	0.26892
12.8563	12.6553	0.390557	0.270453
12.8567	12.6548	0.390485	0.273465
12.8572	12.6543	0.389064	0.274722
12.8577	12.6538	0.391229	0.27566
12.8582	12.6533	0.391755	0.27771
12.8586	12.6529	0.389642	0.279195
12.8591	12.6524	0.392807	0.284577
12.8596	12.652	0.391558	0.28553
12.8601	12.6515	0.390824	0.285931
12.8605	12.651	0.391738	0.288777
12.861	12.6505	0.391451	0.291597
12.8615	12.65	0.392783	0.294973
12.8619	12.6496	0.391461	0.297068
12.8624	12.6491	0.392739	0.299124
12.8629	12.6486	0.392151	0.300464
12.8634	12.6482	0.392898	0.303545
12.8638	12.6477	0.391935	0.307259
12.8643	12.6472	0.391151	0.307177
12.8648	12.6467	0.389542	0.308357
12.8652	12.6463	0.389832	0.308759
12.8657	12.6458	0.38915	0.31024
12.8662	12.6453	0.389514	0.313294
12.8667	12.6448	0.388399	0.313566
12.8671	12.6443	0.390024	0.312084
12.8676	12.6439	0.390012	0.313829
12.8681	12.6434	0.390973	0.315889
12.8686	12.6429	0.392852	0.319847
12.869	12.6425	0.391529	0.319656
12.8695	12.642	0.392578	0.317909
12.87	12.6416	0.393105	0.320006
12.8704	12.6411	0.393308	0.319945
12.8709	12.6406	0.393488	0.321157
12.8714	12.6401	0.392513	0.320881
12.8719	12.6397	0.392776	0.319569
12.8723	12.6392	0.395447	0.319385
12.8728	12.6387	0.393384	0.319546
12.8733	12.6383	0.393255	0.320256
12.8737	12.6378	0.391941	0.31916
12.8742	12.6373	0.394463	0.318773
12.8747	12.6368	0.393467	0.317168
12.8752	12.6364	0.393794	0.316381
12.8756	12.6359	0.393369	0.317025
12.8761	12.6354	0.392852	0.315353
12.8766	12.6349	0.392023	0.31291
12.8771	12.6345	0.394046	0.313971
12.8775	12.634	0.393144	0.313356
12.878	12.6335	0.394065	0.314738
12.8785	12.6331	0.392421	0.314373
12.8789	12.6326	0.392891	0.312501
12.8794	12.6321	0.394992	0.312541
12.8799	12.6317	0.394109	0.314006
12.8804	12.6312	0.393929	0.31425
12.8808	12.6307	0.392425	0.313799
12.8813	12.6302	0.394176	0.312877
12.8818	12.6298	0.394037	0.313792
12.8822	12.6293	0.391454	0.313885
12.8827	12.6288	0.394066	0.315191
12.8832	12.6284	0.393373	0.31463
12.8837	12.6279	0.393075	0.315053
12.8841	12.6274	0.394276	0.314245
12.8846	12.6269	0.393125	0.313533
12.8851	12.6265	0.395914	0.31484
12.8856	12.626	0.393134	0.312983
12.886	12.6255	0.392246	0.31102
12.8865	12.625	0.394281	0.312591
12.887	12.6245	0.392726	0.311349
12.8874	12.6241	0.394309	0.312618
12.8879	12.6236	0.393821	0.310739
12.8884	12.6231	0.391709	0.306723
12.8889	12.6227	0.395223	0.308494
12.8893	12.6222	0.39333	0.307934
12.8898	12.6217	0.393243	0.308234
12.8903	12.6212	0.390909	0.307876
12.8907	12.6208	0.392761	0.305643
12.8912	12.6203	0.394158	0.304824
12.8917	12.6198	0.390835	0.306045
12.8922	12.6193	0.393106	0.308561
12.8926	12.6189	0.392054	0.305655
12.8931	12.6184	0.392301	0.304689
12.8936	12.6179	0.393941	0.305676
12.8941	12.6175	0.394101	0.305277
12.8945	12.617	0.392112	0.306673
12.895	12.6165	0.391101	0.305827
12.8955	12.616	0.391846	0.303572
12.8959	12.6156	0.394192	0.304596
12.8964	12.6151	0.393353	0.305441
12.8969	12.6146	0.393434	0.305288
12.8974	12.6141	0.391432	0.304741
12.8978	12.6137	0.392308	0.302275
12.8983	12.6132	0.394071	0.302177
12.8988	12.6127	0.39406	0.301861
