# 1304     AichiSR QXAFS
# Start     : 8.9544
# End       : 9.0544
# Dir       : Backward
# Points    : 300
# ScanTime  : 1.01549
# Date      : 13.04.23 22:24
# Ring Cur. : 25.4[mA]
12.7557	12.6118	0.299503	0.228526
12.7562	12.6122	0.304106	0.231131
12.7566	12.6127	0.301852	0.232901
12.7571	12.6131	0.301555	0.234279
12.7576	12.6136	0.30048	0.232899
12.7581	12.6141	0.300425	0.231707
12.7585	12.6145	0.306377	0.236452
12.759	12.615	0.307063	0.236981
12.7595	12.6155	0.304459	0.236219
12.7599	12.616	0.303449	0.238461
12.7604	12.6165	0.302716	0.234504
12.7609	12.6169	0.304552	0.235833
12.7614	12.6174	0.303851	0.237432
12.7618	12.6179	0.303873	0.238449
12.7623	12.6184	0.301729	0.234782
12.7628	12.6188	0.302596	0.235646
12.7632	12.6193	0.306127	0.236561
12.7637	12.6198	0.304454	0.238256
12.7642	12.6202	0.301154	0.237209
12.7647	12.6207	0.303586	0.236423
12.7651	12.6212	0.303759	0.235896
12.7656	12.6217	0.303598	0.237815
12.7661	12.6221	0.305322	0.238878
12.7666	12.6226	0.302902	0.23943
12.767	12.6231	0.305007	0.239751
12.7675	12.6235	0.30404	0.237874
12.768	12.624	0.305874	0.239782
12.7684	12.6245	0.30497	0.240698
12.7689	12.625	0.303268	0.244338
12.7694	12.6254	0.305319	0.243409
12.7699	12.6259	0.302849	0.239739
12.7703	12.6264	0.305049	0.243264
12.7708	12.6269	0.30597	0.24468
12.7713	12.6274	0.305015	0.246206
12.7717	12.6278	0.304429	0.244581
12.7722	12.6283	0.303999	0.243647
12.7727	12.6288	0.306621	0.245295
12.7732	12.6292	0.30648	0.24689
12.7736	12.6297	0.305682	0.246365
12.7741	12.6302	0.3064	0.245923
12.7746	12.6306	0.307022	0.245548
12.7751	12.6311	0.308372	0.245629
12.7755	12.6316	0.308007	0.246723
12.776	12.6321	0.305816	0.246529
12.7765	12.6325	0.308103	0.245489
12.7769	12.633	0.307037	0.244851
12.7774	12.6335	0.309631	0.245979
12.7779	12.6339	0.308657	0.247001
12.7784	12.6344	0.308607	0.246893
12.7788	12.6349	0.308159	0.246729
12.7793	12.6354	0.308819	0.246291
12.7798	12.6358	0.310694	0.246824
12.7802	12.6363	0.310807	0.249951
12.7807	12.6368	0.308881	0.249814
12.7812	12.6373	0.3079	0.249046
12.7817	12.6377	0.310423	0.249646
12.7821	12.6382	0.311332	0.251249
12.7826	12.6387	0.311245	0.252407
12.7831	12.6391	0.308479	0.253197
12.7836	12.6396	0.310647	0.253935
12.784	12.6401	0.310356	0.252267
12.7845	12.6405	0.311821	0.252366
12.785	12.641	0.311062	0.254776
12.7854	12.6415	0.312013	0.25515
12.7859	12.6419	0.310112	0.25291
12.7864	12.6424	0.311503	0.253436
12.7869	12.6429	0.313113	0.255988
12.7873	12.6433	0.314392	0.255467
12.7878	12.6438	0.309861	0.254029
12.7883	12.6443	0.311406	0.251565
12.7887	12.6447	0.310825	0.251248
12.7892	12.6452	0.311365	0.249851
12.7897	12.6457	0.312913	0.251668
12.7902	12.6462	0.308927	0.248906
12.7906	12.6467	0.308602	0.246676
12.7911	12.6471	0.312585	0.246501
12.7916	12.6476	0.315193	0.2469
12.7921	12.6481	0.311256	0.246049
12.7925	12.6486	0.311829	0.245228
12.793	12.6491	0.314627	0.244214
12.7935	12.6495	0.314893	0.240956
12.7939	12.65	0.315039	0.239862
12.7944	12.6505	0.31695	0.240214
12.7949	12.6509	0.315741	0.23886
12.7954	12.6514	0.314069	0.233166
12.7958	12.6519	0.315811	0.23118
12.7963	12.6524	0.316543	0.232077
12.7968	12.6528	0.31645	0.230499
12.7972	12.6533	0.315576	0.228319
12.7977	12.6538	0.314503	0.226047
12.7982	12.6542	0.317762	0.224074
12.7987	12.6547	0.316477	0.222686
12.7991	12.6552	0.316928	0.223476
12.7996	12.6557	0.315971	0.222458
12.8001	12.6561	0.316335	0.219322
12.8006	12.6566	0.318135	0.218996
12.801	12.6571	0.319241	0.219601
12.8015	12.6576	0.317726	0.220033
12.802	12.6581	0.316508	0.220266
12.8024	12.6585	0.317438	0.218082
12.8029	12.659	0.318501	0.219229
12.8034	12.6594	0.317426	0.221338
12.8039	12.6599	0.318508	0.222344
12.8043	12.6604	0.318093	0.22361
12.8048	12.6609	0.315446	0.221732
12.8053	12.6613	0.318787	0.225988
12.8057	12.6618	0.321054	0.228974
12.8062	12.6623	0.320201	0.230995
12.8067	12.6627	0.318464	0.231531
12.8072	12.6632	0.319268	0.233006
12.8076	12.6637	0.32178	0.234989
12.8081	12.6641	0.321633	0.237521
12.8086	12.6646	0.320419	0.239733
12.8091	12.6651	0.319226	0.241155
12.8095	12.6656	0.319059	0.239718
12.81	12.666	0.320337	0.2419
12.8105	12.6665	0.321791	0.246411
12.8109	12.667	0.318953	0.247357
12.8114	12.6675	0.319778	0.248627
12.8119	12.6679	0.320434	0.250737
12.8124	12.6684	0.321258	0.252608
12.8128	12.6689	0.319504	0.255025
12.8133	12.6693	0.322179	0.260357
12.8138	12.6698	0.321525	0.261273
12.8142	12.6703	0.320915	0.260265
12.8147	12.6707	0.32145	0.262103
12.8152	12.6712	0.324462	0.268217
12.8157	12.6717	0.321955	0.268095
12.8161	12.6721	0.320309	0.268692
12.8166	12.6726	0.321876	0.269941
12.8171	12.6731	0.322446	0.27163
12.8176	12.6735	0.320553	0.273284
12.818	12.674	0.322699	0.276307
12.8185	12.6745	0.322179	0.27484
12.819	12.675	0.31861	0.273897
12.8194	12.6755	0.322918	0.274691
12.8199	12.6759	0.323123	0.278347
12.8204	12.6764	0.323467	0.279361
12.8209	12.6769	0.322349	0.278145
12.8213	12.6774	0.32193	0.278389
12.8218	12.6779	0.324907	0.278032
12.8223	12.6783	0.321567	0.277448
12.8227	12.6788	0.324355	0.280027
12.8232	12.6793	0.322899	0.278786
12.8237	12.6797	0.321209	0.274357
12.8242	12.6802	0.32224	0.272742
12.8246	12.6807	0.323816	0.273715
12.8251	12.6812	0.324556	0.272349
12.8256	12.6816	0.322726	0.267336
12.8261	12.6821	0.321699	0.263516
12.8265	12.6826	0.323814	0.261213
12.827	12.683	0.322582	0.261162
12.8275	12.6835	0.322613	0.258586
12.8279	12.684	0.322619	0.255507
12.8284	12.6844	0.321112	0.251321
12.8289	12.6849	0.322913	0.249649
12.8294	12.6854	0.323799	0.248279
12.8298	12.6859	0.322183	0.245197
12.8303	12.6864	0.322298	0.240597
12.8308	12.6868	0.322833	0.237536
12.8312	12.6873	0.32523	0.23488
12.8317	12.6878	0.323555	0.231363
12.8322	12.6883	0.324418	0.229549
12.8327	12.6887	0.324213	0.227044
12.8331	12.6892	0.323598	0.223049
12.8336	12.6897	0.325091	0.222994
12.8341	12.6901	0.324603	0.223445
12.8346	12.6906	0.323822	0.225767
12.835	12.6911	0.323314	0.228019
12.8355	12.6916	0.323875	0.229933
12.836	12.692	0.325587	0.233269
12.8364	12.6925	0.324476	0.238293
12.8369	12.6929	0.32368	0.243929
12.8374	12.6934	0.322276	0.246791
12.8379	12.6939	0.323108	0.248836
12.8383	12.6943	0.325602	0.255698
12.8388	12.6948	0.324679	0.259878
12.8393	12.6953	0.323352	0.26156
12.8397	12.6958	0.322032	0.262268
12.8402	12.6963	0.322888	0.262493
12.8407	12.6967	0.323686	0.262383
12.8412	12.6972	0.322447	0.262325
12.8416	12.6977	0.323497	0.262139
12.8421	12.6981	0.323119	0.257961
12.8426	12.6986	0.321496	0.25282
12.8431	12.6991	0.324587	0.252277
12.8435	12.6995	0.325675	0.249731
12.844	12.7	0.323222	0.246093
12.8445	12.7005	0.321853	0.241287
12.8449	12.701	0.323281	0.236853
12.8454	12.7014	0.324897	0.23424
12.8459	12.7019	0.32348	0.23214
12.8464	12.7024	0.322638	0.230269
12.8468	12.7028	0.324574	0.228013
12.8473	12.7033	0.323279	0.225993
12.8478	12.7038	0.322851	0.22836
12.8482	12.7042	0.3252	0.23454
12.8487	12.7047	0.323656	0.237151
12.8492	12.7052	0.324235	0.242666
12.8497	12.7057	0.324403	0.25011
12.8501	12.7062	0.326201	0.258318
12.8506	12.7067	0.324288	0.268415
12.8511	12.7071	0.324871	0.280708
12.8516	12.7076	0.325496	0.291424
12.852	12.7081	0.324533	0.30041
12.8525	12.7086	0.32571	0.314585
12.853	12.709	0.32622	0.331098
12.8534	12.7095	0.324121	0.344362
12.8539	12.71	0.323849	0.356102
12.8544	12.7104	0.326698	0.369959
12.8549	12.7109	0.326871	0.384142
12.8553	12.7114	0.326167	0.398483
12.8558	12.7119	0.326384	0.410358
12.8563	12.7123	0.326892	0.419232
12.8567	12.7128	0.325653	0.428363
12.8572	12.7133	0.326659	0.439927
12.8577	12.7137	0.326764	0.448496
12.8582	12.7142	0.325396	0.455067
12.8586	12.7147	0.326164	0.463302
12.8591	12.7152	0.326218	0.471026
12.8596	12.7156	0.325787	0.47818
12.8601	12.7161	0.325335	0.489433
12.8605	12.7166	0.325392	0.50054
12.861	12.7171	0.32508	0.506853
12.8615	12.7175	0.323808	0.511315
12.8619	12.718	0.324418	0.514739
12.8624	12.7185	0.326913	0.522069
12.8629	12.7189	0.324826	0.516903
12.8634	12.7194	0.325618	0.513503
12.8638	12.7199	0.325662	0.505773
12.8643	12.7203	0.325888	0.503862
12.8648	12.7208	0.325774	0.50338
12.8652	12.7213	0.324154	0.506788
12.8657	12.7218	0.324019	0.512438
12.8662	12.7222	0.322814	0.521865
12.8667	12.7227	0.324893	0.549234
12.8671	12.7231	0.324907	0.586122
12.8676	12.7236	0.322291	0.624686
12.8681	12.7241	0.32071	0.670645
12.8686	12.7245	0.320977	0.722642
12.869	12.725	0.32099	0.771567
12.8695	12.7255	0.321176	0.814403
12.87	12.726	0.322286	0.857049
12.8704	12.7265	0.322986	0.8818
12.8709	12.7269	0.320414	0.889283
12.8714	12.7274	0.32353	0.910245
12.8719	12.7279	0.325816	0.931794
12.8723	12.7284	0.323222	0.935752
12.8728	12.7288	0.322112	0.934759
12.8733	12.7293	0.325872	0.946685
12.8737	12.7298	0.325155	0.949913
12.8742	12.7302	0.324211	0.949927
12.8747	12.7307	0.323766	0.960979
12.8752	12.7312	0.324295	0.962634
12.8756	12.7317	0.323379	0.958628
12.8761	12.7321	0.324238	0.963934
12.8766	12.7326	0.326051	0.973201
12.8771	12.7331	0.324969	0.973854
12.8775	12.7335	0.324179	0.972355
12.878	12.734	0.326834	0.974173
12.8785	12.7345	0.323923	0.97551
12.8789	12.735	0.324375	0.976599
12.8794	12.7355	0.325845	0.983324
12.8799	12.7359	0.325367	0.978485
12.8804	12.7364	0.326528	0.97514
12.8808	12.7369	0.324037	0.974837
12.8813	12.7374	0.325187	0.98337
12.8818	12.7379	0.325288	0.986589
12.8822	12.7383	0.324964	0.984199
12.8827	12.7388	0.32727	0.986896
12.8832	12.7393	0.325124	0.986315
12.8837	12.7397	0.326545	0.990193
12.8841	12.7402	0.326023	0.99129
12.8846	12.7407	0.327186	0.989918
12.8851	12.7411	0.32588	0.988485
12.8856	12.7416	0.325445	0.985858
12.886	12.7421	0.325777	0.987954
12.8865	12.7425	0.325267	0.991201
12.887	12.743	0.325055	0.985561
12.8874	12.7435	0.327293	0.989707
12.8879	12.744	0.327331	0.987096
12.8884	12.7444	0.325023	0.988255
12.8889	12.7449	0.325756	0.991065
12.8893	12.7454	0.327535	0.995988
12.8898	12.7459	0.328278	0.992265
12.8903	12.7463	0.325533	0.989851
12.8907	12.7468	0.326784	0.997677
12.8912	12.7473	0.327343	1.00047
12.8917	12.7478	0.325767	0.990976
12.8922	12.7482	0.328436	0.998746
12.8926	12.7487	0.32785	0.99736
12.8931	12.7492	0.325509	0.993225
12.8936	12.7496	0.327631	1.00026
12.8941	12.7501	0.32735	0.994983
12.8945	12.7506	0.327518	0.992619
12.895	12.751	0.326632	0.993478
12.8955	12.7515	0.327274	1.00014
12.8959	12.752	0.326801	0.996144
12.8964	12.7524	0.326516	0.993645
12.8969	12.7529	0.329552	0.999871
12.8974	12.7534	0.326407	0.995452
12.8978	12.7538	0.326318	0.995747
12.8983	12.7543	0.328057	1.00119
12.8988	12.7548	0.328012	1.00082
