# 1304     AichiSR QXAFS
# Start     : 8.9544
# End       : 9.0544
# Dir       : Backward
# Points    : 300
# ScanTime  : 1.01549
# Date      : 13.04.23 22:33
# Ring Cur. : 25.6[mA]
12.7557	12.6118	0.309659	0.237349
12.7562	12.6123	0.31063	0.237925
12.7566	12.6128	0.311384	0.240216
12.7571	12.6132	0.30916	0.240533
12.7576	12.6137	0.308533	0.238564
12.7581	12.6142	0.311689	0.240845
12.7585	12.6146	0.31482	0.242032
12.759	12.6151	0.313439	0.243158
12.7595	12.6156	0.310939	0.24431
12.7599	12.6161	0.313956	0.243501
12.7604	12.6165	0.312765	0.24289
12.7609	12.617	0.314904	0.244514
12.7614	12.6175	0.314451	0.245066
12.7618	12.618	0.31225	0.24534
12.7623	12.6184	0.310435	0.242031
12.7628	12.6189	0.312516	0.242217
12.7632	12.6194	0.314304	0.244114
12.7637	12.6198	0.314757	0.246027
12.7642	12.6203	0.311258	0.242617
12.7647	12.6208	0.311875	0.243113
12.7651	12.6213	0.315093	0.244197
12.7656	12.6218	0.314234	0.244741
12.7661	12.6222	0.315211	0.247243
12.7666	12.6227	0.31195	0.24636
12.767	12.6232	0.314132	0.247077
12.7675	12.6236	0.313857	0.246042
12.768	12.6241	0.316579	0.247795
12.7684	12.6246	0.315232	0.249964
12.7689	12.6251	0.311414	0.248428
12.7694	12.6255	0.3123	0.249088
12.7699	12.626	0.312519	0.248514
12.7703	12.6265	0.313032	0.249548
12.7708	12.627	0.313029	0.252072
12.7713	12.6274	0.314093	0.252235
12.7717	12.6279	0.310918	0.249058
12.7722	12.6284	0.313108	0.249974
12.7727	12.6289	0.316669	0.253307
12.7732	12.6293	0.317061	0.253901
12.7736	12.6298	0.313045	0.25259
12.7741	12.6303	0.314195	0.251563
12.7746	12.6307	0.316897	0.252426
12.7751	12.6312	0.316546	0.251508
12.7755	12.6317	0.317315	0.253707
12.776	12.6322	0.313525	0.25228
12.7765	12.6326	0.313644	0.249832
12.7769	12.6331	0.313858	0.249762
12.7774	12.6335	0.314805	0.250657
12.7779	12.634	0.312937	0.251989
12.7784	12.6345	0.315248	0.253648
12.7788	12.635	0.315191	0.251567
12.7793	12.6354	0.314547	0.251293
12.7798	12.6359	0.314606	0.253552
12.7802	12.6364	0.31954	0.257748
12.7807	12.6369	0.31625	0.256436
12.7812	12.6373	0.314287	0.252854
12.7817	12.6378	0.31758	0.255654
12.7821	12.6383	0.317314	0.256465
12.7826	12.6388	0.316214	0.257655
12.7831	12.6392	0.31445	0.258344
12.7836	12.6397	0.315917	0.257178
12.784	12.6401	0.316991	0.257033
12.7845	12.6406	0.31677	0.256891
12.785	12.6411	0.318564	0.261184
12.7854	12.6416	0.315227	0.258409
12.7859	12.642	0.315354	0.257155
12.7864	12.6425	0.317158	0.257744
12.7869	12.643	0.316411	0.258585
12.7873	12.6434	0.317272	0.258403
12.7878	12.6439	0.314584	0.257677
12.7883	12.6444	0.315199	0.255995
12.7887	12.6448	0.314711	0.25383
12.7892	12.6453	0.314175	0.252678
12.7897	12.6458	0.315089	0.255691
12.7902	12.6463	0.316987	0.25501
12.7906	12.6468	0.313106	0.248934
12.7911	12.6472	0.31552	0.248177
12.7916	12.6477	0.317177	0.251069
12.7921	12.6482	0.316951	0.249248
12.7925	12.6487	0.316233	0.246643
12.793	12.6491	0.317283	0.245248
12.7935	12.6496	0.318957	0.242262
12.7939	12.6501	0.316918	0.242239
12.7944	12.6505	0.317939	0.241155
12.7949	12.651	0.31943	0.24016
12.7954	12.6515	0.317146	0.23466
12.7958	12.652	0.319552	0.233291
12.7963	12.6524	0.318914	0.233189
12.7968	12.6529	0.319614	0.233255
12.7972	12.6534	0.318112	0.229034
12.7977	12.6538	0.318603	0.226387
12.7982	12.6543	0.320221	0.22463
12.7987	12.6548	0.319115	0.224033
12.7991	12.6553	0.320284	0.225111
12.7996	12.6558	0.31893	0.223551
12.8001	12.6562	0.316474	0.219186
12.8006	12.6567	0.320825	0.219508
12.801	12.6572	0.320856	0.221417
12.8015	12.6577	0.319163	0.220718
12.802	12.6581	0.319022	0.220798
12.8024	12.6586	0.318849	0.219539
12.8029	12.6591	0.319973	0.221287
12.8034	12.6595	0.319477	0.222578
12.8039	12.66	0.31905	0.224394
12.8043	12.6605	0.31965	0.224131
12.8048	12.6609	0.318355	0.223347
12.8053	12.6614	0.32089	0.227743
12.8057	12.6619	0.319996	0.229269
12.8062	12.6624	0.319392	0.230571
12.8067	12.6628	0.319191	0.231779
12.8072	12.6633	0.319648	0.233512
12.8076	12.6637	0.3213	0.234723
12.8081	12.6642	0.320573	0.236723
12.8086	12.6647	0.32096	0.240195
12.8091	12.6652	0.320116	0.240597
12.8095	12.6657	0.319594	0.241144
12.81	12.6661	0.322173	0.244388
12.8105	12.6666	0.321928	0.24686
12.8109	12.6671	0.320473	0.248073
12.8114	12.6676	0.319736	0.249447
12.8119	12.668	0.320238	0.250611
12.8124	12.6685	0.322346	0.25433
12.8128	12.669	0.324327	0.258374
12.8133	12.6694	0.321748	0.260079
12.8138	12.6699	0.32212	0.262282
12.8142	12.6704	0.321355	0.261519
12.8147	12.6708	0.321547	0.262299
12.8152	12.6713	0.322284	0.268259
12.8157	12.6718	0.320491	0.269444
12.8161	12.6722	0.319563	0.268752
12.8166	12.6727	0.320471	0.269948
12.8171	12.6732	0.322778	0.272371
12.8176	12.6736	0.321264	0.27359
12.818	12.6741	0.320803	0.275024
12.8185	12.6746	0.322627	0.27685
12.819	12.6751	0.320217	0.272942
12.8194	12.6756	0.32192	0.275189
12.8199	12.676	0.323504	0.278885
12.8204	12.6765	0.321279	0.280111
12.8209	12.677	0.320728	0.277626
12.8213	12.6775	0.323087	0.277921
12.8218	12.678	0.323432	0.276529
12.8223	12.6784	0.322205	0.276996
12.8227	12.6789	0.322638	0.279537
12.8232	12.6794	0.324886	0.27834
12.8237	12.6798	0.32245	0.274537
12.8242	12.6803	0.323042	0.272337
12.8246	12.6808	0.325415	0.274601
12.8251	12.6813	0.323351	0.270852
12.8256	12.6817	0.321059	0.266624
12.8261	12.6822	0.324202	0.264199
12.8265	12.6827	0.325	0.262066
12.827	12.6831	0.323464	0.261651
12.8275	12.6836	0.323552	0.260041
12.8279	12.6841	0.32429	0.256136
12.8284	12.6845	0.323483	0.252092
12.8289	12.685	0.324748	0.249396
12.8294	12.6855	0.325084	0.25089
12.8298	12.686	0.324665	0.245256
12.8303	12.6865	0.323538	0.242803
12.8308	12.6869	0.326297	0.238323
12.8312	12.6874	0.327876	0.235258
12.8317	12.6879	0.32653	0.232535
12.8322	12.6884	0.326107	0.231459
12.8327	12.6888	0.326187	0.227664
12.8331	12.6893	0.325916	0.223624
12.8336	12.6897	0.328274	0.225606
12.8341	12.6902	0.328806	0.226826
12.8346	12.6907	0.326389	0.228412
12.835	12.6912	0.327242	0.229072
12.8355	12.6916	0.328364	0.232244
12.836	12.6921	0.32726	0.23721
12.8364	12.6926	0.327474	0.24331
12.8369	12.693	0.327975	0.248605
12.8374	12.6935	0.328623	0.250956
12.8379	12.694	0.326288	0.253928
12.8383	12.6944	0.327831	0.258557
12.8388	12.6949	0.329291	0.26409
12.8393	12.6954	0.326618	0.266161
12.8397	12.6959	0.328752	0.266808
12.8402	12.6963	0.328755	0.265636
12.8407	12.6968	0.328158	0.265801
12.8412	12.6973	0.327365	0.266374
12.8416	12.6978	0.32924	0.265451
12.8421	12.6982	0.329027	0.262146
12.8426	12.6987	0.329513	0.256362
12.8431	12.6992	0.327226	0.253925
12.8435	12.6996	0.329619	0.252751
12.844	12.7001	0.327381	0.248404
12.8445	12.7006	0.326838	0.243404
12.8449	12.701	0.328072	0.2393
12.8454	12.7015	0.329835	0.236143
12.8459	12.702	0.327855	0.234191
12.8464	12.7025	0.327532	0.23293
12.8468	12.7029	0.331168	0.232125
12.8473	12.7034	0.32806	0.231272
12.8478	12.7039	0.329385	0.232276
12.8482	12.7043	0.33232	0.239273
12.8487	12.7048	0.32976	0.243413
12.8492	12.7053	0.329213	0.247395
12.8497	12.7058	0.330791	0.256803
12.8501	12.7063	0.331205	0.265929
12.8506	12.7068	0.327698	0.272516
12.8511	12.7072	0.329127	0.287444
12.8516	12.7077	0.332422	0.298796
12.852	12.7082	0.331074	0.308626
12.8525	12.7087	0.331332	0.324441
12.853	12.7091	0.332211	0.342041
12.8534	12.7096	0.331194	0.355971
12.8539	12.71	0.330117	0.368265
12.8544	12.7105	0.33437	0.383274
12.8549	12.711	0.333823	0.395785
12.8553	12.7115	0.331817	0.407612
12.8558	12.7119	0.332131	0.42103
12.8563	12.7124	0.333496	0.430934
12.8567	12.7129	0.333278	0.440387
12.8572	12.7133	0.3327	0.449849
12.8577	12.7138	0.332302	0.45999
12.8582	12.7143	0.330306	0.466881
12.8586	12.7148	0.333225	0.473998
12.8591	12.7152	0.333535	0.484466
12.8596	12.7157	0.332626	0.492214
12.8601	12.7162	0.333697	0.503931
12.8605	12.7167	0.333921	0.514148
12.861	12.7172	0.333875	0.520984
12.8615	12.7176	0.333512	0.525146
12.8619	12.7181	0.333271	0.532006
12.8624	12.7186	0.333179	0.529947
12.8629	12.719	0.330087	0.527012
12.8634	12.7195	0.331235	0.521224
12.8638	12.7199	0.33474	0.516947
12.8643	12.7204	0.331492	0.512928
12.8648	12.7209	0.33224	0.513883
12.8652	12.7214	0.332938	0.519257
12.8657	12.7218	0.333459	0.525425
12.8662	12.7223	0.33149	0.540937
12.8667	12.7228	0.333806	0.568583
12.8671	12.7232	0.33165	0.607177
12.8676	12.7237	0.329391	0.65226
12.8681	12.7242	0.329742	0.701308
12.8686	12.7246	0.329823	0.757422
12.869	12.7251	0.327318	0.8043
12.8695	12.7256	0.328057	0.845801
12.87	12.7261	0.327779	0.880984
12.8704	12.7265	0.328317	0.901445
12.8709	12.727	0.33081	0.919943
12.8714	12.7275	0.33136	0.939002
12.8719	12.728	0.332799	0.949243
12.8723	12.7284	0.33165	0.956379
12.8728	12.7289	0.33081	0.962578
12.8733	12.7294	0.332669	0.966583
12.8737	12.7298	0.333447	0.978602
12.8742	12.7303	0.332011	0.979554
12.8747	12.7308	0.332125	0.981866
12.8752	12.7313	0.333133	0.986561
12.8756	12.7318	0.332297	0.986855
12.8761	12.7322	0.332458	0.987332
12.8766	12.7327	0.33316	0.996105
12.8771	12.7332	0.332405	0.998908
12.8775	12.7336	0.329924	0.992054
12.878	12.7341	0.332102	0.994486
12.8785	12.7346	0.333936	1.00155
12.8789	12.7351	0.331895	1.00053
12.8794	12.7355	0.332201	1.00524
12.8799	12.736	0.333749	1.00294
12.8804	12.7365	0.33503	1.00417
12.8808	12.737	0.333756	1.00842
12.8813	12.7375	0.334855	1.01134
12.8818	12.7379	0.33202	1.00932
12.8822	12.7384	0.33293	1.00596
12.8827	12.7389	0.33581	1.01206
12.8832	12.7393	0.335365	1.01043
12.8837	12.7398	0.333838	1.00931
12.8841	12.7403	0.33537	1.01694
12.8846	12.7408	0.334621	1.01222
12.8851	12.7412	0.333045	1.00974
12.8856	12.7417	0.334884	1.01617
12.886	12.7422	0.335698	1.01878
12.8865	12.7426	0.33487	1.02162
12.887	12.7431	0.33406	1.01383
12.8874	12.7436	0.337838	1.01905
12.8879	12.744	0.336602	1.01878
12.8884	12.7445	0.335499	1.02075
12.8889	12.745	0.336548	1.02406
12.8893	12.7455	0.335423	1.01765
12.8898	12.746	0.336571	1.01983
12.8903	12.7464	0.336782	1.02222
12.8907	12.7469	0.335421	1.0242
12.8912	12.7474	0.335542	1.02404
12.8917	12.7479	0.335223	1.01882
12.8922	12.7483	0.337222	1.02388
12.8926	12.7488	0.33516	1.02126
12.8931	12.7493	0.335532	1.02335
12.8936	12.7497	0.336912	1.02904
12.8941	12.7502	0.337389	1.02439
12.8945	12.7507	0.337049	1.02439
12.895	12.7511	0.336528	1.02938
12.8955	12.7516	0.338908	1.03305
12.8959	12.7521	0.337902	1.02987
12.8964	12.7525	0.336906	1.02505
12.8969	12.753	0.337238	1.02544
12.8974	12.7535	0.336189	1.02834
12.8978	12.7539	0.334579	1.02472
12.8983	12.7544	0.334989	1.02651
12.8988	12.7549	0.336964	1.02653
