# 1304     AichiSR QXAFS
# Start     : 8.9544
# End       : 9.0544
# Dir       : Backward
# Points    : 300
# ScanTime  : 1.01549
# Date      : 13.04.23 22:33
# Ring Cur. : 25.6[mA]
12.7557	12.6118	0.309246	0.23616
12.7562	12.6123	0.309035	0.238044
12.7566	12.6128	0.308971	0.236944
12.7571	12.6132	0.308703	0.237779
12.7576	12.6137	0.310688	0.239269
12.7581	12.6142	0.31085	0.240789
12.7585	12.6146	0.312086	0.243366
12.759	12.6151	0.31028	0.241851
12.7595	12.6156	0.311525	0.240526
12.7599	12.6161	0.313623	0.243144
12.7604	12.6165	0.314171	0.243161
12.7609	12.617	0.312922	0.245161
12.7614	12.6175	0.311762	0.24292
12.7618	12.618	0.312705	0.242925
12.7623	12.6184	0.313582	0.241637
12.7628	12.6189	0.312437	0.244642
12.7632	12.6194	0.312726	0.244832
12.7637	12.6198	0.313983	0.243562
12.7642	12.6203	0.311365	0.243256
12.7647	12.6208	0.31348	0.244201
12.7651	12.6213	0.315033	0.246601
12.7656	12.6218	0.312471	0.245332
12.7661	12.6222	0.312937	0.2457
12.7666	12.6227	0.311476	0.243748
12.767	12.6231	0.315535	0.246906
12.7675	12.6236	0.314856	0.248545
12.768	12.6241	0.314239	0.249693
12.7684	12.6246	0.314017	0.248168
12.7689	12.625	0.312806	0.247852
12.7694	12.6255	0.316057	0.250996
12.7699	12.626	0.31684	0.251741
12.7703	12.6265	0.314513	0.251312
12.7708	12.627	0.313188	0.251294
12.7713	12.6274	0.314692	0.250311
12.7717	12.6279	0.316059	0.251719
12.7722	12.6284	0.313817	0.252669
12.7727	12.6289	0.314511	0.253824
12.7732	12.6293	0.315092	0.253144
12.7736	12.6298	0.316126	0.251605
12.7741	12.6302	0.317002	0.252285
12.7746	12.6307	0.317417	0.254028
12.7751	12.6312	0.315573	0.254456
12.7755	12.6317	0.316846	0.251512
12.776	12.6322	0.315451	0.250402
12.7765	12.6326	0.316348	0.251853
12.7769	12.6331	0.317079	0.254563
12.7774	12.6335	0.316941	0.254353
12.7779	12.634	0.316523	0.252717
12.7784	12.6345	0.315004	0.249315
12.7788	12.635	0.318906	0.253632
12.7793	12.6354	0.319547	0.255308
12.7798	12.6359	0.316449	0.256126
12.7802	12.6364	0.317803	0.255406
12.7807	12.6369	0.319306	0.254345
12.7812	12.6373	0.318974	0.256179
12.7817	12.6378	0.319137	0.259496
12.7821	12.6383	0.31873	0.259235
12.7826	12.6388	0.317842	0.258104
12.7831	12.6392	0.316858	0.257512
12.7836	12.6397	0.32076	0.259372
12.784	12.6401	0.320233	0.260767
12.7845	12.6406	0.318512	0.261701
12.785	12.6411	0.317549	0.260286
12.7854	12.6416	0.318417	0.258852
12.7859	12.642	0.318652	0.259491
12.7864	12.6425	0.320335	0.260665
12.7869	12.6429	0.319815	0.26258
12.7873	12.6434	0.316566	0.257143
12.7878	12.6439	0.31755	0.256882
12.7883	12.6444	0.3183	0.259054
12.7887	12.6448	0.318864	0.260478
12.7892	12.6453	0.315331	0.256555
12.7897	12.6458	0.316818	0.255128
12.7902	12.6463	0.318768	0.25331
12.7906	12.6468	0.318704	0.251349
12.7911	12.6472	0.31949	0.254367
12.7916	12.6477	0.321031	0.254565
12.7921	12.6482	0.319352	0.250731
12.7925	12.6487	0.318875	0.247013
12.793	12.6491	0.319619	0.247901
12.7935	12.6496	0.321859	0.247308
12.7939	12.6501	0.321324	0.244637
12.7944	12.6505	0.320589	0.242071
12.7949	12.651	0.323166	0.240135
12.7954	12.6515	0.320898	0.23731
12.7958	12.652	0.322129	0.238035
12.7963	12.6524	0.322648	0.238223
12.7968	12.6529	0.321055	0.232849
12.7972	12.6534	0.323352	0.23091
12.7977	12.6538	0.323321	0.228918
12.7982	12.6543	0.323797	0.230801
12.7987	12.6548	0.321077	0.228329
12.7991	12.6553	0.322599	0.224548
12.7996	12.6558	0.322812	0.224246
12.8001	12.6562	0.322412	0.222676
12.8006	12.6567	0.322269	0.224279
12.801	12.6572	0.324648	0.225621
12.8015	12.6577	0.32275	0.222216
12.802	12.6581	0.323191	0.221051
12.8024	12.6586	0.321959	0.222866
12.8029	12.6591	0.323664	0.226038
12.8034	12.6595	0.323757	0.225478
12.8039	12.66	0.322689	0.225464
12.8043	12.6605	0.324127	0.226078
12.8048	12.661	0.322211	0.226952
12.8053	12.6614	0.324393	0.231458
12.8057	12.6619	0.324066	0.233567
12.8062	12.6624	0.322941	0.231744
12.8067	12.6628	0.324084	0.234095
12.8072	12.6633	0.323783	0.235854
12.8076	12.6637	0.326113	0.23984
12.8081	12.6642	0.324803	0.242999
12.8086	12.6647	0.325222	0.241693
12.8091	12.6652	0.32635	0.24355
12.8095	12.6657	0.324462	0.244488
12.81	12.6661	0.326336	0.24955
12.8105	12.6666	0.328183	0.249864
12.8109	12.6671	0.325196	0.250595
12.8114	12.6676	0.325767	0.252956
12.8119	12.668	0.325344	0.255097
12.8124	12.6685	0.3261	0.258938
12.8128	12.669	0.325187	0.259457
12.8133	12.6694	0.326184	0.261655
12.8138	12.6699	0.328309	0.264449
12.8142	12.6703	0.325122	0.265958
12.8147	12.6708	0.325301	0.269634
12.8152	12.6713	0.327864	0.272509
12.8157	12.6718	0.326549	0.271251
12.8161	12.6722	0.324861	0.271454
12.8166	12.6727	0.326201	0.275416
12.8171	12.6732	0.325198	0.277145
12.8176	12.6736	0.324027	0.27687
12.818	12.6741	0.326969	0.277952
12.8185	12.6746	0.327494	0.278625
12.819	12.6751	0.324632	0.278705
12.8194	12.6756	0.325194	0.281899
12.8199	12.676	0.327775	0.283297
12.8204	12.6765	0.32641	0.28168
12.8209	12.677	0.325538	0.281595
12.8213	12.6775	0.326209	0.282848
12.8218	12.678	0.327254	0.283778
12.8223	12.6784	0.325043	0.281167
12.8227	12.6789	0.32604	0.281244
12.8232	12.6794	0.328248	0.278939
12.8237	12.6798	0.325194	0.277636
12.8242	12.6803	0.326676	0.278036
12.8246	12.6808	0.328284	0.275937
12.8251	12.6812	0.326937	0.272161
12.8256	12.6817	0.326716	0.269618
12.8261	12.6822	0.328388	0.269069
12.8265	12.6827	0.326343	0.266289
12.827	12.6831	0.325382	0.262997
12.8275	12.6836	0.32686	0.259976
12.8279	12.6841	0.328068	0.257933
12.8284	12.6845	0.326692	0.255624
12.8289	12.685	0.325046	0.253408
12.8294	12.6855	0.325011	0.251073
12.8298	12.686	0.326401	0.24598
12.8303	12.6865	0.327707	0.24249
12.8308	12.6869	0.327551	0.240513
12.8312	12.6874	0.32671	0.236494
12.8317	12.6879	0.326546	0.234147
12.8322	12.6884	0.330055	0.230419
12.8327	12.6888	0.330198	0.228106
12.8331	12.6893	0.329214	0.226154
12.8336	12.6897	0.328574	0.226989
12.8341	12.6902	0.329954	0.227026
12.8346	12.6907	0.327706	0.226384
12.835	12.6912	0.328139	0.228246
12.8355	12.6916	0.328657	0.234809
12.836	12.6921	0.326973	0.238678
12.8364	12.6926	0.326128	0.243079
12.8369	12.693	0.328982	0.245684
12.8374	12.6935	0.328353	0.251249
12.8379	12.694	0.327344	0.256578
12.8383	12.6944	0.327513	0.260986
12.8388	12.6949	0.329237	0.263124
12.8393	12.6954	0.327549	0.263429
12.8397	12.6959	0.33012	0.267043
12.8402	12.6963	0.328648	0.267237
12.8407	12.6968	0.327421	0.267407
12.8412	12.6973	0.327119	0.265565
12.8416	12.6978	0.328087	0.26321
12.8421	12.6982	0.329306	0.259991
12.8426	12.6987	0.325545	0.256966
12.8431	12.6992	0.327349	0.255977
12.8435	12.6996	0.328067	0.25053
12.844	12.7001	0.325132	0.24574
12.8445	12.7006	0.326378	0.241596
12.8449	12.701	0.328357	0.240023
12.8454	12.7015	0.32788	0.237474
12.8459	12.702	0.326137	0.232606
12.8464	12.7025	0.325461	0.230428
12.8468	12.7029	0.329232	0.230252
12.8473	12.7034	0.325564	0.23011
12.8478	12.7039	0.325897	0.232629
12.8482	12.7043	0.328716	0.236824
12.8487	12.7048	0.327318	0.239862
12.8492	12.7053	0.327316	0.244704
12.8497	12.7058	0.32917	0.255468
12.8501	12.7063	0.329264	0.266498
12.8506	12.7067	0.327279	0.271541
12.8511	12.7072	0.327408	0.283056
12.8516	12.7077	0.329902	0.297449
12.852	12.7082	0.327546	0.309405
12.8525	12.7087	0.327179	0.323819
12.853	12.7091	0.329475	0.337313
12.8534	12.7096	0.328162	0.350138
12.8539	12.71	0.32986	0.362988
12.8544	12.7105	0.330975	0.380113
12.8549	12.711	0.329383	0.394736
12.8553	12.7115	0.329234	0.40264
12.8558	12.7119	0.328544	0.415721
12.8563	12.7124	0.329544	0.425076
12.8567	12.7129	0.328213	0.43462
12.8572	12.7133	0.326237	0.4454
12.8577	12.7138	0.328882	0.45526
12.8582	12.7143	0.327414	0.459117
12.8586	12.7148	0.328263	0.467837
12.8591	12.7152	0.329554	0.478773
12.8596	12.7157	0.327544	0.489175
12.8601	12.7162	0.327802	0.496932
12.8605	12.7167	0.328665	0.504664
12.861	12.7171	0.329134	0.511974
12.8615	12.7176	0.327792	0.518697
12.8619	12.7181	0.32601	0.523443
12.8624	12.7186	0.327232	0.522215
12.8629	12.719	0.32698	0.517924
12.8634	12.7195	0.327007	0.515846
12.8638	12.7199	0.32787	0.510537
12.8643	12.7204	0.327327	0.50741
12.8648	12.7209	0.32576	0.503819
12.8652	12.7214	0.326422	0.508452
12.8657	12.7218	0.327391	0.516677
12.8662	12.7223	0.324626	0.531382
12.8667	12.7228	0.324903	0.557423
12.8671	12.7232	0.325664	0.595968
12.8676	12.7237	0.325103	0.63848
12.8681	12.7242	0.323486	0.687945
12.8686	12.7246	0.321791	0.742301
12.869	12.7251	0.320868	0.792914
12.8695	12.7256	0.321927	0.829073
12.87	12.7261	0.324571	0.862408
12.8704	12.7265	0.327866	0.900907
12.8709	12.727	0.32669	0.914047
12.8714	12.7275	0.324687	0.921207
12.8719	12.728	0.325321	0.936799
12.8723	12.7284	0.326333	0.939934
12.8728	12.7289	0.324481	0.944185
12.8733	12.7294	0.325778	0.952833
12.8737	12.7298	0.325431	0.960268
12.8742	12.7303	0.324921	0.957068
12.8747	12.7308	0.325696	0.963234
12.8752	12.7313	0.327661	0.969192
12.8756	12.7318	0.325105	0.968313
12.8761	12.7322	0.324729	0.968525
12.8766	12.7327	0.327141	0.975296
12.8771	12.7332	0.326862	0.978301
12.8775	12.7336	0.326918	0.975043
12.878	12.7341	0.327676	0.981144
12.8785	12.7346	0.3267	0.984788
12.8789	12.7351	0.32511	0.979009
12.8794	12.7355	0.3288	0.985442
12.8799	12.736	0.328269	0.988925
12.8804	12.7365	0.326366	0.985296
12.8808	12.737	0.326271	0.988317
12.8813	12.7375	0.32854	0.989931
12.8818	12.7379	0.329666	0.993796
12.8822	12.7384	0.328561	0.988979
12.8827	12.7389	0.329848	0.999136
12.8832	12.7393	0.328556	0.998316
12.8837	12.7398	0.328675	0.99796
12.8841	12.7403	0.331203	1.00112
12.8846	12.7408	0.331617	1.00385
12.8851	12.7412	0.329084	0.998023
12.8856	12.7417	0.329534	1.00326
12.886	12.7422	0.330308	1.00503
12.8865	12.7426	0.3314	1.00443
12.887	12.7431	0.331281	1.00444
12.8874	12.7436	0.330785	1.00431
12.8879	12.744	0.330218	1.00846
12.8884	12.7445	0.33133	1.00587
12.8889	12.745	0.333479	1.01262
12.8893	12.7455	0.334369	1.01519
12.8898	12.7459	0.331043	1.01111
12.8903	12.7464	0.332837	1.01596
12.8907	12.7469	0.334505	1.0154
12.8912	12.7474	0.335462	1.01645
12.8917	12.7479	0.333942	1.01588
12.8922	12.7483	0.333006	1.02103
12.8926	12.7488	0.333135	1.01831
12.8931	12.7492	0.331746	1.01419
12.8936	12.7497	0.337139	1.02361
12.8941	12.7502	0.335038	1.02055
12.8945	12.7506	0.333804	1.01572
12.895	12.7511	0.333398	1.01724
12.8955	12.7516	0.335124	1.02322
12.8959	12.7521	0.335451	1.02017
12.8964	12.7525	0.333812	1.01679
12.8969	12.753	0.336656	1.02535
12.8974	12.7535	0.334982	1.02498
12.8978	12.7539	0.335323	1.01544
12.8983	12.7544	0.338014	1.02708
12.8988	12.7549	0.337861	1.02593
