# 1304     AichiSR QXAFS
# Start     : 8.9544
# End       : 9.0544
# Dir       : Backward
# Points    : 300
# ScanTime  : 1.01549
# Date      : 13.04.23 22:21
# Ring Cur. : 25.5[mA]
12.7557	12.6117	0.30041	0.230233
12.7562	12.6122	0.297713	0.228599
12.7566	12.6127	0.303015	0.231306
12.7571	12.6131	0.302032	0.234258
12.7576	12.6136	0.301497	0.233283
12.7581	12.6141	0.299957	0.232709
12.7585	12.6145	0.301482	0.232026
12.759	12.615	0.301806	0.232777
12.7595	12.6155	0.300144	0.235245
12.7599	12.616	0.302671	0.236921
12.7604	12.6164	0.300482	0.235061
12.7609	12.6169	0.300695	0.233228
12.7614	12.6174	0.302452	0.235404
12.7618	12.6179	0.303936	0.237545
12.7623	12.6183	0.302193	0.237094
12.7628	12.6188	0.302398	0.236476
12.7632	12.6193	0.301681	0.234759
12.7637	12.6197	0.302434	0.23447
12.7642	12.6202	0.302022	0.236152
12.7647	12.6207	0.303139	0.238485
12.7651	12.6212	0.29997	0.235248
12.7656	12.6216	0.299743	0.233224
12.7661	12.6221	0.303891	0.236219
12.7666	12.6226	0.302804	0.2377
12.767	12.623	0.302122	0.238616
12.7675	12.6235	0.298961	0.237807
12.768	12.624	0.301604	0.237203
12.7684	12.6245	0.302785	0.239525
12.7689	12.6249	0.301778	0.239712
12.7694	12.6254	0.303194	0.241731
12.7699	12.6259	0.30244	0.24072
12.7703	12.6264	0.30143	0.239182
12.7708	12.6269	0.302926	0.240825
12.7713	12.6273	0.303104	0.243679
12.7717	12.6278	0.302422	0.244002
12.7722	12.6283	0.302838	0.242488
12.7727	12.6288	0.301223	0.240861
12.7732	12.6292	0.302098	0.241821
12.7736	12.6297	0.301418	0.242805
12.7741	12.6301	0.302863	0.244172
12.7746	12.6306	0.30298	0.242479
12.7751	12.6311	0.299813	0.239317
12.7755	12.6316	0.304054	0.241875
12.776	12.632	0.30279	0.243496
12.7765	12.6325	0.302857	0.243648
12.7769	12.633	0.302828	0.241796
12.7774	12.6334	0.302809	0.242575
12.7779	12.6339	0.307145	0.244268
12.7784	12.6344	0.305485	0.244717
12.7788	12.6348	0.303798	0.245664
12.7793	12.6353	0.303148	0.242473
12.7798	12.6358	0.301915	0.241992
12.7802	12.6363	0.304805	0.245071
12.7807	12.6368	0.304764	0.24524
12.7812	12.6372	0.302074	0.2452
12.7817	12.6377	0.305606	0.24655
12.7821	12.6382	0.30293	0.245092
12.7826	12.6386	0.305713	0.246578
12.7831	12.6391	0.305118	0.248082
12.7836	12.6396	0.303954	0.250319
12.784	12.64	0.303748	0.247748
12.7845	12.6405	0.302876	0.246823
12.785	12.641	0.306067	0.248483
12.7854	12.6415	0.30409	0.249577
12.7859	12.6419	0.30479	0.250119
12.7864	12.6424	0.302702	0.248141
12.7869	12.6428	0.302794	0.246694
12.7873	12.6433	0.303724	0.246999
12.7878	12.6438	0.305011	0.247312
12.7883	12.6442	0.303881	0.247766
12.7887	12.6447	0.304097	0.245626
12.7892	12.6452	0.302627	0.244494
12.7897	12.6457	0.304086	0.244356
12.7902	12.6462	0.30562	0.24503
12.7906	12.6466	0.305278	0.245516
12.7911	12.6471	0.305379	0.243373
12.7916	12.6476	0.305625	0.241351
12.7921	12.6481	0.308818	0.241042
12.7925	12.6486	0.306997	0.24164
12.793	12.649	0.307627	0.240286
12.7935	12.6495	0.307609	0.237294
12.7939	12.65	0.306194	0.232852
12.7944	12.6504	0.308385	0.233327
12.7949	12.6509	0.309892	0.234773
12.7954	12.6514	0.308405	0.231246
12.7958	12.6519	0.306661	0.228093
12.7963	12.6523	0.309942	0.227226
12.7968	12.6528	0.310475	0.225375
12.7972	12.6533	0.310154	0.223584
12.7977	12.6537	0.310372	0.223635
12.7982	12.6542	0.310944	0.220604
12.7987	12.6547	0.309571	0.217721
12.7991	12.6552	0.309548	0.218358
12.7996	12.6556	0.312145	0.218848
12.8001	12.6561	0.311556	0.216153
12.8006	12.6566	0.310978	0.215822
12.801	12.6571	0.309664	0.214381
12.8015	12.6576	0.311844	0.213769
12.802	12.658	0.31135	0.215864
12.8024	12.6585	0.311996	0.217768
12.8029	12.659	0.311464	0.216579
12.8034	12.6594	0.313001	0.215812
12.8039	12.6599	0.314548	0.217957
12.8043	12.6604	0.314775	0.22203
12.8048	12.6608	0.313175	0.222517
12.8053	12.6613	0.313622	0.222139
12.8057	12.6618	0.313206	0.221994
12.8062	12.6623	0.311937	0.225089
12.8067	12.6627	0.313452	0.228383
12.8072	12.6632	0.314841	0.23114
12.8076	12.6636	0.314228	0.22861
12.8081	12.6641	0.313914	0.230498
12.8086	12.6646	0.315062	0.233822
12.8091	12.6651	0.31506	0.236984
12.8095	12.6655	0.314838	0.237857
12.81	12.666	0.315585	0.239632
12.8105	12.6665	0.316169	0.241378
12.8109	12.667	0.316347	0.242525
12.8114	12.6674	0.316964	0.248336
12.8119	12.6679	0.31684	0.249554
12.8124	12.6684	0.314786	0.249385
12.8128	12.6689	0.31496	0.250296
12.8133	12.6693	0.315499	0.253474
12.8138	12.6698	0.317156	0.257078
12.8142	12.6702	0.315272	0.259459
12.8147	12.6707	0.316289	0.259281
12.8152	12.6712	0.31794	0.259751
12.8157	12.6717	0.315718	0.262317
12.8161	12.6721	0.317021	0.266227
12.8166	12.6726	0.319474	0.268579
12.8171	12.6731	0.31706	0.267712
12.8176	12.6735	0.31848	0.268675
12.818	12.674	0.318699	0.269071
12.8185	12.6745	0.321173	0.273652
12.819	12.675	0.317316	0.273036
12.8194	12.6754	0.316998	0.27153
12.8199	12.6759	0.317831	0.272905
12.8204	12.6764	0.320028	0.274622
12.8209	12.6769	0.317595	0.276593
12.8213	12.6774	0.31829	0.275637
12.8218	12.6778	0.318772	0.274711
12.8223	12.6783	0.318261	0.273169
12.8227	12.6788	0.318966	0.275714
12.8232	12.6792	0.320944	0.275843
12.8237	12.6797	0.319617	0.275004
12.8242	12.6802	0.318871	0.270059
12.8246	12.6807	0.320778	0.269947
12.8251	12.6811	0.320009	0.267805
12.8256	12.6816	0.319182	0.265905
12.8261	12.6821	0.32087	0.264771
12.8265	12.6825	0.32004	0.260031
12.827	12.683	0.317967	0.255859
12.8275	12.6835	0.319555	0.256229
12.8279	12.6839	0.320431	0.254137
12.8284	12.6844	0.318526	0.251952
12.8289	12.6849	0.318315	0.247453
12.8294	12.6854	0.320747	0.246057
12.8298	12.6859	0.320541	0.242118
12.8303	12.6863	0.32071	0.241129
12.8308	12.6868	0.320822	0.238255
12.8312	12.6873	0.321665	0.232566
12.8317	12.6878	0.321329	0.228826
12.8322	12.6883	0.322168	0.218102
12.8327	12.6887	0.322759	0.229109
12.8331	12.6892	0.320725	0.224792
12.8336	12.6896	0.322972	0.221172
12.8341	12.6901	0.322147	0.220751
12.8346	12.6906	0.320205	0.220863
12.835	12.6911	0.320643	0.225355
12.8355	12.6915	0.323009	0.229799
12.836	12.692	0.322449	0.231019
12.8364	12.6925	0.321659	0.234003
12.8369	12.6929	0.321597	0.239714
12.8374	12.6934	0.322082	0.246043
12.8379	12.6939	0.322889	0.251056
12.8383	12.6943	0.322056	0.253565
12.8388	12.6948	0.321817	0.25623
12.8393	12.6953	0.320454	0.25832
12.8397	12.6958	0.321362	0.261355
12.8402	12.6962	0.321719	0.262554
12.8407	12.6967	0.321585	0.260444
12.8412	12.6972	0.3221	0.258773
12.8416	12.6977	0.32065	0.259503
12.8421	12.6981	0.322425	0.258981
12.8426	12.6986	0.320663	0.255035
12.8431	12.6991	0.321471	0.250275
12.8435	12.6995	0.322884	0.247747
12.844	12.7	0.319131	0.243301
12.8445	12.7004	0.319826	0.240442
12.8449	12.7009	0.321874	0.237942
12.8454	12.7014	0.323459	0.233206
12.8459	12.7019	0.320373	0.228199
12.8464	12.7023	0.321587	0.22881
12.8468	12.7028	0.323391	0.228717
12.8473	12.7033	0.323214	0.227415
12.8478	12.7037	0.321277	0.226997
12.8482	12.7042	0.324373	0.231277
12.8487	12.7047	0.323343	0.232944
12.8492	12.7052	0.32232	0.241111
12.8497	12.7057	0.322304	0.250307
12.8501	12.7062	0.323043	0.25577
12.8506	12.7066	0.323664	0.263672
12.8511	12.7071	0.324141	0.276142
12.8516	12.7076	0.324935	0.289594
12.852	12.7081	0.323678	0.299744
12.8525	12.7085	0.32321	0.312446
12.853	12.709	0.326656	0.325794
12.8534	12.7095	0.32209	0.337608
12.8539	12.7099	0.321876	0.352682
12.8544	12.7104	0.323597	0.369476
12.8549	12.7109	0.32285	0.380412
12.8553	12.7114	0.324978	0.391035
12.8558	12.7118	0.322952	0.403978
12.8563	12.7123	0.323437	0.418258
12.8567	12.7128	0.323401	0.425454
12.8572	12.7132	0.324292	0.436214
12.8577	12.7137	0.326832	0.442933
12.8582	12.7142	0.321662	0.449853
12.8586	12.7146	0.322887	0.461755
12.8591	12.7151	0.323416	0.468742
12.8596	12.7156	0.323446	0.475202
12.8601	12.7161	0.324282	0.484433
12.8605	12.7166	0.323766	0.493437
12.861	12.717	0.32323	0.501774
12.8615	12.7175	0.323111	0.50866
12.8619	12.718	0.323808	0.513828
12.8624	12.7185	0.325909	0.516672
12.8629	12.7189	0.322983	0.511671
12.8634	12.7194	0.322183	0.509454
12.8638	12.7198	0.323767	0.505406
12.8643	12.7203	0.32311	0.501494
12.8648	12.7208	0.323719	0.498737
12.8652	12.7213	0.321012	0.500555
12.8657	12.7217	0.322946	0.509497
12.8662	12.7222	0.321116	0.520111
12.8667	12.7227	0.321463	0.540275
12.8671	12.7231	0.324518	0.575521
12.8676	12.7236	0.320015	0.613417
12.8681	12.7241	0.318533	0.66031
12.8686	12.7245	0.31816	0.711659
12.869	12.725	0.319201	0.761274
12.8695	12.7255	0.318015	0.798974
12.87	12.726	0.320317	0.841422
12.8704	12.7264	0.321421	0.870956
12.8709	12.7269	0.321279	0.889998
12.8714	12.7274	0.321513	0.90594
12.8719	12.7279	0.325598	0.923037
12.8723	12.7283	0.320345	0.922738
12.8728	12.7288	0.322301	0.930591
12.8733	12.7293	0.322716	0.943618
12.8737	12.7297	0.321864	0.943161
12.8742	12.7302	0.321592	0.942374
12.8747	12.7307	0.322074	0.954236
12.8752	12.7312	0.322754	0.957971
12.8756	12.7316	0.321893	0.953731
12.8761	12.7321	0.323522	0.964323
12.8766	12.7326	0.326476	0.972096
12.8771	12.733	0.324057	0.968603
12.8775	12.7335	0.322109	0.965598
12.878	12.734	0.323474	0.974005
12.8785	12.7345	0.32532	0.972078
12.8789	12.735	0.323818	0.968324
12.8794	12.7354	0.323713	0.970565
12.8799	12.7359	0.323183	0.973644
12.8804	12.7364	0.323045	0.974416
12.8808	12.7369	0.322516	0.975593
12.8813	12.7374	0.325301	0.977591
12.8818	12.7378	0.323203	0.976446
12.8822	12.7383	0.323715	0.979315
12.8827	12.7388	0.32558	0.982277
12.8832	12.7392	0.324604	0.982844
12.8837	12.7397	0.324729	0.981841
12.8841	12.7402	0.325216	0.984832
12.8846	12.7406	0.326785	0.986914
12.8851	12.7411	0.324484	0.985417
12.8856	12.7416	0.327099	0.988818
12.886	12.7421	0.327233	0.989303
12.8865	12.7425	0.323944	0.983417
12.887	12.743	0.323571	0.985504
12.8874	12.7435	0.325539	0.990046
12.8879	12.7439	0.325925	0.988671
12.8884	12.7444	0.32642	0.989079
12.8889	12.7449	0.326122	0.988164
12.8893	12.7454	0.326548	0.995144
12.8898	12.7458	0.324223	0.991355
12.8903	12.7463	0.326793	0.995671
12.8907	12.7468	0.329777	0.996304
12.8912	12.7473	0.326997	0.994282
12.8917	12.7477	0.325039	0.992489
12.8922	12.7482	0.326504	0.993343
12.8926	12.7487	0.327553	0.99729
12.8931	12.7491	0.327268	0.992682
12.8936	12.7496	0.327388	0.995678
12.8941	12.7501	0.326101	0.995772
12.8945	12.7505	0.324986	0.99132
12.895	12.751	0.327423	0.998338
12.8955	12.7515	0.329436	1.00181
12.8959	12.752	0.326424	0.993108
12.8964	12.7524	0.325471	0.997904
12.8969	12.7529	0.328062	1.00029
12.8974	12.7533	0.327142	0.996543
12.8978	12.7538	0.326289	0.992542
12.8983	12.7543	0.327724	0.999567
12.8988	12.7548	0.326416	0.998372
