# 1304     AichiSR QXAFS
# Start     : 8.9544
# End       : 9.0544
# Dir       : Forward
# Points    : 300
# ScanTime  : 1.01549
# Date      : 13.04.23 22:25
# Ring Cur. : 25.5[mA]
12.7557	12.7557	0.398923	1.21354
12.7562	12.7553	0.398657	1.21531
12.7566	12.7548	0.396624	1.2154
12.7571	12.7543	0.398347	1.21083
12.7576	12.7538	0.400021	1.21081
12.7581	12.7534	0.398281	1.21215
12.7585	12.7529	0.398455	1.21479
12.759	12.7524	0.397993	1.21595
12.7595	12.752	0.397566	1.21331
12.7599	12.7515	0.399636	1.2134
12.7604	12.751	0.398511	1.21522
12.7609	12.7506	0.39818	1.2156
12.7614	12.7501	0.39794	1.21634
12.7618	12.7496	0.397499	1.21149
12.7623	12.7492	0.399854	1.21166
12.7628	12.7487	0.398933	1.21572
12.7632	12.7482	0.399564	1.21529
12.7637	12.7478	0.398273	1.21624
12.7642	12.7473	0.398309	1.21025
12.7647	12.7468	0.399495	1.20945
12.7651	12.7463	0.398308	1.21587
12.7656	12.7459	0.398957	1.21423
12.7661	12.7454	0.398696	1.21582
12.7666	12.7449	0.398643	1.21375
12.767	12.7444	0.401501	1.21366
12.7675	12.744	0.399648	1.21221
12.768	12.7435	0.399531	1.21482
12.7684	12.743	0.398477	1.21488
12.7689	12.7425	0.397942	1.21156
12.7694	12.7421	0.399758	1.21393
12.7699	12.7416	0.399368	1.21168
12.7703	12.7411	0.400413	1.21391
12.7708	12.7407	0.400175	1.2117
12.7713	12.7402	0.399588	1.20998
12.7717	12.7397	0.400177	1.20749
12.7722	12.7393	0.400123	1.20832
12.7727	12.7388	0.399768	1.20918
12.7732	12.7383	0.398155	1.2074
12.7736	12.7379	0.397918	1.20577
12.7741	12.7374	0.400492	1.20504
12.7746	12.7369	0.399976	1.20619
12.7751	12.7364	0.399959	1.20354
12.7755	12.7359	0.398679	1.20562
12.776	12.7355	0.399452	1.20254
12.7765	12.735	0.401625	1.20101
12.7769	12.7345	0.400031	1.20176
12.7774	12.734	0.399697	1.19982
12.7779	12.7335	0.399272	1.19659
12.7784	12.7331	0.398997	1.1941
12.7788	12.7326	0.400487	1.19089
12.7793	12.7321	0.39863	1.19171
12.7798	12.7317	0.398401	1.1887
12.7802	12.7312	0.398562	1.18683
12.7807	12.7307	0.399802	1.1799
12.7812	12.7302	0.399854	1.17897
12.7817	12.7298	0.400024	1.1776
12.7821	12.7293	0.398002	1.17383
12.7826	12.7288	0.398883	1.16815
12.7831	12.7284	0.398808	1.16137
12.7836	12.7279	0.39993	1.1505
12.784	12.7274	0.39818	1.14151
12.7845	12.7269	0.396819	1.13016
12.785	12.7265	0.396151	1.1105
12.7854	12.726	0.395987	1.08745
12.7859	12.7255	0.393763	1.05812
12.7864	12.725	0.393257	1.01996
12.7869	12.7246	0.393261	0.977986
12.7873	12.7241	0.393915	0.922719
12.7878	12.7236	0.394195	0.859527
12.7883	12.7231	0.397549	0.80313
12.7887	12.7227	0.399295	0.747526
12.7892	12.7222	0.398315	0.697597
12.7897	12.7218	0.399386	0.660894
12.7902	12.7213	0.399084	0.636791
12.7906	12.7208	0.400698	0.623677
12.7911	12.7203	0.39816	0.618354
12.7916	12.7199	0.397376	0.617212
12.7921	12.7194	0.397443	0.620412
12.7925	12.719	0.397948	0.623421
12.793	12.7185	0.3989	0.629899
12.7935	12.718	0.399141	0.634179
12.7939	12.7175	0.396593	0.63381
12.7944	12.7171	0.397925	0.62941
12.7949	12.7166	0.3982	0.62424
12.7954	12.7161	0.399875	0.616808
12.7958	12.7156	0.399502	0.605874
12.7963	12.7152	0.397415	0.591912
12.7968	12.7147	0.399714	0.581516
12.7972	12.7142	0.399055	0.569635
12.7977	12.7137	0.399826	0.560875
12.7982	12.7133	0.399061	0.551286
12.7987	12.7128	0.3975	0.541156
12.7991	12.7123	0.397172	0.526432
12.7996	12.7119	0.397763	0.515455
12.8001	12.7114	0.397705	0.504401
12.8006	12.7109	0.39858	0.491759
12.801	12.7104	0.397179	0.476625
12.8015	12.71	0.397238	0.46131
12.802	12.7095	0.399334	0.443121
12.8024	12.709	0.399612	0.427261
12.8029	12.7086	0.399229	0.413089
12.8034	12.7081	0.396934	0.395491
12.8039	12.7076	0.396293	0.376704
12.8043	12.7071	0.398764	0.361921
12.8048	12.7067	0.399208	0.346848
12.8053	12.7062	0.397961	0.334809
12.8057	12.7057	0.396116	0.323249
12.8062	12.7052	0.396464	0.309659
12.8067	12.7047	0.396076	0.29915
12.8072	12.7042	0.398554	0.293844
12.8076	12.7038	0.398317	0.288444
12.8081	12.7033	0.396415	0.283327
12.8086	12.7028	0.397122	0.27925
12.8091	12.7024	0.397729	0.277555
12.8095	12.7019	0.398254	0.279661
12.81	12.7014	0.396411	0.283112
12.8105	12.701	0.395356	0.286045
12.8109	12.7005	0.397002	0.287896
12.8114	12.7	0.397446	0.292157
12.8119	12.6995	0.396742	0.296604
12.8124	12.6991	0.397861	0.302701
12.8128	12.6986	0.393708	0.307367
12.8133	12.6982	0.397104	0.309488
12.8138	12.6977	0.397712	0.312886
12.8142	12.6972	0.397664	0.31684
12.8147	12.6967	0.397557	0.320474
12.8152	12.6963	0.395252	0.322647
12.8157	12.6958	0.397016	0.322399
12.8161	12.6953	0.396933	0.320612
12.8166	12.6948	0.396975	0.318899
12.8171	12.6944	0.396066	0.318541
12.8176	12.6939	0.396047	0.313743
12.818	12.6934	0.395192	0.308093
12.8185	12.6929	0.394829	0.302999
12.819	12.6925	0.395767	0.29746
12.8194	12.692	0.396376	0.292988
12.8199	12.6916	0.394306	0.288057
12.8204	12.6911	0.396662	0.281913
12.8209	12.6906	0.39692	0.276831
12.8213	12.6901	0.395849	0.27484
12.8218	12.6897	0.395905	0.273189
12.8223	12.6892	0.394931	0.271009
12.8227	12.6887	0.393739	0.270794
12.8232	12.6883	0.396225	0.272464
12.8237	12.6878	0.394276	0.275407
12.8242	12.6873	0.393051	0.280579
12.8246	12.6868	0.392318	0.283411
12.8251	12.6864	0.394421	0.286995
12.8256	12.6859	0.393251	0.290216
12.8261	12.6854	0.392896	0.294945
12.8265	12.6849	0.394882	0.300951
12.827	12.6845	0.390908	0.303201
12.8275	12.684	0.391469	0.305475
12.8279	12.6835	0.394132	0.308588
12.8284	12.683	0.391643	0.311397
12.8289	12.6826	0.393027	0.316791
12.8294	12.6821	0.392433	0.31906
12.8298	12.6816	0.39304	0.320619
12.8303	12.6812	0.394931	0.322813
12.8308	12.6807	0.393088	0.326514
12.8312	12.6802	0.394829	0.330784
12.8317	12.6797	0.393157	0.332641
12.8322	12.6793	0.393238	0.333403
12.8327	12.6788	0.395359	0.335972
12.8331	12.6783	0.393352	0.338118
12.8336	12.6779	0.394917	0.340599
12.8341	12.6774	0.394241	0.339984
12.8346	12.6769	0.393781	0.338526
12.835	12.6764	0.394021	0.337929
12.8355	12.676	0.394255	0.339861
12.836	12.6755	0.395786	0.339403
12.8364	12.675	0.394081	0.338563
12.8369	12.6745	0.392761	0.335933
12.8374	12.674	0.39434	0.334705
12.8379	12.6736	0.391627	0.333241
12.8383	12.6731	0.393091	0.335204
12.8388	12.6726	0.392926	0.333239
12.8393	12.6722	0.392934	0.329089
12.8397	12.6717	0.393972	0.328101
12.8402	12.6712	0.392715	0.32832
12.8407	12.6708	0.393205	0.327571
12.8412	12.6703	0.393654	0.324382
12.8416	12.6698	0.392848	0.318835
12.8421	12.6693	0.39483	0.318779
12.8426	12.6689	0.394443	0.31692
12.8431	12.6684	0.393638	0.314866
12.8435	12.668	0.390911	0.311126
12.844	12.6675	0.394185	0.30699
12.8445	12.667	0.393702	0.304893
12.8449	12.6665	0.39261	0.302717
12.8454	12.6661	0.392088	0.301509
12.8459	12.6656	0.392638	0.298355
12.8464	12.6651	0.391288	0.296047
12.8468	12.6646	0.392965	0.293826
12.8473	12.6641	0.392265	0.293337
12.8478	12.6637	0.391748	0.290665
12.8482	12.6632	0.391362	0.288245
12.8487	12.6628	0.39045	0.284348
12.8492	12.6623	0.392868	0.283462
12.8497	12.6618	0.391181	0.281838
12.8501	12.6614	0.391352	0.281215
12.8506	12.6609	0.390609	0.27809
12.8511	12.6604	0.389492	0.273693
12.8516	12.6599	0.392786	0.27287
12.852	12.6595	0.391251	0.273063
12.8525	12.659	0.389224	0.271455
12.853	12.6585	0.388273	0.27016
12.8534	12.6581	0.388883	0.266959
12.8539	12.6576	0.39177	0.26693
12.8544	12.6571	0.390711	0.267945
12.8549	12.6566	0.390874	0.270276
12.8553	12.6562	0.389088	0.269673
12.8558	12.6557	0.390758	0.269646
12.8563	12.6552	0.391611	0.270082
12.8567	12.6547	0.390446	0.27112
12.8572	12.6542	0.388245	0.273791
12.8577	12.6538	0.388978	0.274405
12.8582	12.6533	0.389726	0.275809
12.8586	12.6528	0.389863	0.27781
12.8591	12.6524	0.391156	0.281683
12.8596	12.6519	0.390075	0.283992
12.8601	12.6514	0.38832	0.285316
12.8605	12.6509	0.3885	0.287154
12.861	12.6505	0.391073	0.290123
12.8615	12.65	0.389668	0.292432
12.8619	12.6495	0.388136	0.294974
12.8624	12.6491	0.388702	0.296884
12.8629	12.6486	0.388194	0.297791
12.8634	12.6481	0.388364	0.300319
12.8638	12.6476	0.389181	0.302676
12.8643	12.6472	0.388007	0.305028
12.8648	12.6467	0.385764	0.305666
12.8652	12.6462	0.385539	0.304627
12.8657	12.6457	0.385603	0.305405
12.8662	12.6452	0.384174	0.307947
12.8667	12.6448	0.384535	0.309864
12.8671	12.6443	0.383537	0.30956
12.8676	12.6438	0.383233	0.30956
12.8681	12.6433	0.388104	0.311868
12.8686	12.6429	0.386347	0.31407
12.869	12.6424	0.385471	0.315305
12.8695	12.642	0.385704	0.313784
12.87	12.6415	0.386116	0.312612
12.8704	12.641	0.386974	0.315334
12.8709	12.6405	0.387584	0.316079
12.8714	12.6401	0.385429	0.315965
12.8719	12.6396	0.385853	0.314442
12.8723	12.6391	0.384889	0.310762
12.8728	12.6387	0.386329	0.313078
12.8733	12.6382	0.386251	0.312647
12.8737	12.6377	0.384912	0.312591
12.8742	12.6373	0.385451	0.310626
12.8747	12.6368	0.384768	0.309719
12.8752	12.6363	0.385378	0.309344
12.8756	12.6358	0.385892	0.311462
12.8761	12.6354	0.383552	0.309377
12.8766	12.6349	0.384427	0.306764
12.8771	12.6344	0.384992	0.305743
12.8775	12.6339	0.385913	0.305378
12.878	12.6335	0.385003	0.307333
12.8785	12.633	0.384182	0.306865
12.8789	12.6325	0.382874	0.305441
12.8794	12.6321	0.382131	0.304187
12.8799	12.6316	0.388051	0.30719
12.8804	12.6311	0.388082	0.310428
12.8808	12.6307	0.3835	0.306955
12.8813	12.6302	0.383719	0.306283
12.8818	12.6297	0.38375	0.30572
12.8822	12.6292	0.38519	0.307295
12.8827	12.6288	0.384568	0.307299
12.8832	12.6283	0.382854	0.308266
12.8837	12.6278	0.384462	0.307106
12.8841	12.6274	0.383957	0.304897
12.8846	12.6269	0.385061	0.305541
12.8851	12.6264	0.383673	0.306473
12.8856	12.6259	0.382779	0.305791
12.886	12.6254	0.382768	0.304354
12.8865	12.625	0.384341	0.302632
12.887	12.6245	0.384092	0.302281
12.8874	12.624	0.383303	0.304264
12.8879	12.6235	0.381659	0.303161
12.8884	12.6231	0.382516	0.300568
12.8889	12.6226	0.382792	0.298253
12.8893	12.6221	0.383686	0.299077
12.8898	12.6217	0.38403	0.301306
12.8903	12.6212	0.381448	0.300131
12.8907	12.6207	0.382629	0.297836
12.8912	12.6202	0.382347	0.297351
12.8917	12.6198	0.383614	0.297612
12.8922	12.6193	0.383304	0.298121
12.8926	12.6188	0.383106	0.298968
12.8931	12.6184	0.383	0.298031
12.8936	12.6179	0.383961	0.296237
12.8941	12.6174	0.383404	0.298489
12.8945	12.6169	0.385222	0.29999
12.895	12.6165	0.383921	0.300035
12.8955	12.616	0.383346	0.298052
12.8959	12.6155	0.38422	0.296668
12.8964	12.615	0.383555	0.297511
12.8969	12.6146	0.38411	0.298715
12.8974	12.6141	0.38458	0.297497
12.8978	12.6136	0.384791	0.295357
12.8983	12.6131	0.385074	0.294929
12.8988	12.6127	0.383755	0.295793
