# 1304     AichiSR QXAFS
# Start     : 8.9544
# End       : 9.0544
# Dir       : Forward
# Points    : 300
# ScanTime  : 1.01549
# Date      : 13.04.23 22:31
# Ring Cur. : 25.6[mA]
12.7557	12.7558	0.403718	1.23346
12.7562	12.7553	0.405225	1.23713
12.7566	12.7548	0.403687	1.23319
12.7571	12.7543	0.403657	1.23225
12.7576	12.7539	0.405561	1.23268
12.7581	12.7534	0.403275	1.2295
12.7585	12.7529	0.402396	1.22973
12.759	12.7525	0.403524	1.23094
12.7595	12.752	0.403434	1.22749
12.7599	12.7516	0.406374	1.22798
12.7604	12.7511	0.40346	1.22762
12.7609	12.7506	0.403109	1.23069
12.7614	12.7501	0.400574	1.22727
12.7618	12.7497	0.40174	1.2256
12.7623	12.7492	0.405643	1.22661
12.7628	12.7487	0.404215	1.22762
12.7632	12.7483	0.404229	1.22828
12.7637	12.7478	0.403133	1.2295
12.7642	12.7473	0.402118	1.2223
12.7647	12.7469	0.403445	1.22319
12.7651	12.7464	0.403523	1.22783
12.7656	12.7459	0.402411	1.22611
12.7661	12.7454	0.402064	1.22453
12.7666	12.7449	0.401072	1.22191
12.767	12.7445	0.404026	1.2223
12.7675	12.744	0.402149	1.22436
12.768	12.7435	0.401339	1.22156
12.7684	12.7431	0.400337	1.2214
12.7689	12.7426	0.401146	1.21604
12.7694	12.7421	0.40285	1.2164
12.7699	12.7417	0.402709	1.21848
12.7703	12.7412	0.401392	1.22052
12.7708	12.7407	0.401283	1.21772
12.7713	12.7402	0.401109	1.2155
12.7717	12.7398	0.402869	1.21108
12.7722	12.7393	0.400769	1.21617
12.7727	12.7388	0.402794	1.21459
12.7732	12.7384	0.398291	1.21093
12.7736	12.7379	0.399966	1.2093
12.7741	12.7374	0.402139	1.20765
12.7746	12.7369	0.401916	1.21262
12.7751	12.7365	0.400054	1.21082
12.7755	12.736	0.398867	1.20639
12.776	12.7355	0.399241	1.20238
12.7765	12.735	0.400397	1.2017
12.7769	12.7345	0.399906	1.20262
12.7774	12.7341	0.399097	1.20034
12.7779	12.7336	0.399656	1.19854
12.7784	12.7331	0.399845	1.19615
12.7788	12.7326	0.400817	1.19529
12.7793	12.7322	0.400585	1.19334
12.7798	12.7317	0.397994	1.18981
12.7802	12.7312	0.398242	1.18626
12.7807	12.7308	0.397715	1.17749
12.7812	12.7303	0.397045	1.17603
12.7817	12.7298	0.398755	1.17387
12.7821	12.7293	0.397597	1.17035
12.7826	12.7289	0.397814	1.16477
12.7831	12.7284	0.396408	1.15498
12.7836	12.7279	0.399483	1.14796
12.784	12.7275	0.398237	1.1443
12.7845	12.727	0.395181	1.13001
12.785	12.7265	0.394578	1.11151
12.7854	12.726	0.393668	1.08994
12.7859	12.7256	0.395152	1.05905
12.7864	12.7251	0.391019	1.02721
12.7869	12.7246	0.388338	0.981846
12.7873	12.7241	0.391162	0.920918
12.7878	12.7237	0.390795	0.860449
12.7883	12.7232	0.394164	0.801138
12.7887	12.7227	0.396661	0.745047
12.7892	12.7223	0.394701	0.695454
12.7897	12.7218	0.39492	0.656529
12.7902	12.7213	0.394886	0.631453
12.7906	12.7209	0.396986	0.618359
12.7911	12.7204	0.395664	0.614954
12.7916	12.7199	0.39529	0.61421
12.7921	12.7195	0.394975	0.613782
12.7925	12.719	0.395234	0.617336
12.793	12.7185	0.39923	0.628695
12.7935	12.7181	0.39854	0.635172
12.7939	12.7176	0.394321	0.630865
12.7944	12.7171	0.393411	0.626009
12.7949	12.7166	0.394665	0.618124
12.7954	12.7162	0.395424	0.609494
12.7958	12.7157	0.39604	0.601831
12.7963	12.7152	0.392817	0.588105
12.7968	12.7147	0.393511	0.575558
12.7972	12.7143	0.39438	0.565752
12.7977	12.7138	0.395183	0.557423
12.7982	12.7133	0.395756	0.548772
12.7987	12.7128	0.394598	0.539377
12.7991	12.7124	0.393491	0.526062
12.7996	12.7119	0.394501	0.512842
12.8001	12.7114	0.394907	0.501974
12.8006	12.711	0.394822	0.487338
12.801	12.7105	0.393752	0.474438
12.8015	12.71	0.393791	0.457858
12.802	12.7095	0.393718	0.440504
12.8024	12.7091	0.395223	0.425049
12.8029	12.7086	0.397129	0.411627
12.8034	12.7081	0.394252	0.394782
12.8039	12.7077	0.393508	0.376212
12.8043	12.7072	0.394837	0.36143
12.8048	12.7067	0.395464	0.346911
12.8053	12.7062	0.395563	0.335776
12.8057	12.7058	0.39311	0.323509
12.8062	12.7053	0.393919	0.309478
12.8067	12.7048	0.395469	0.298929
12.8072	12.7043	0.396433	0.29244
12.8076	12.7038	0.396364	0.287198
12.8081	12.7034	0.394812	0.282491
12.8086	12.7029	0.396737	0.278655
12.8091	12.7024	0.396563	0.277471
12.8095	12.702	0.396848	0.278161
12.81	12.7015	0.396312	0.282182
12.8105	12.701	0.395042	0.284597
12.8109	12.7005	0.396117	0.287571
12.8114	12.7001	0.396078	0.28997
12.8119	12.6996	0.3968	0.2959
12.8124	12.6991	0.395847	0.304153
12.8128	12.6987	0.396365	0.30654
12.8133	12.6982	0.396762	0.308961
12.8138	12.6977	0.396532	0.312726
12.8142	12.6973	0.396441	0.316407
12.8147	12.6968	0.397168	0.320388
12.8152	12.6963	0.396886	0.323584
12.8157	12.6958	0.396539	0.322186
12.8161	12.6954	0.39939	0.321566
12.8166	12.6949	0.397742	0.321023
12.8171	12.6944	0.398053	0.320031
12.8176	12.6939	0.396123	0.31627
12.818	12.6935	0.395625	0.310173
12.8185	12.693	0.397197	0.305267
12.819	12.6925	0.397794	0.300695
12.8194	12.6921	0.397377	0.29593
12.8199	12.6916	0.396804	0.289763
12.8204	12.6911	0.39735	0.281855
12.8209	12.6907	0.397234	0.277411
12.8213	12.6902	0.397521	0.276007
12.8218	12.6897	0.399608	0.274718
12.8223	12.6893	0.396092	0.27392
12.8227	12.6888	0.39579	0.271998
12.8232	12.6883	0.397863	0.275316
12.8237	12.6879	0.396966	0.277304
12.8242	12.6874	0.397561	0.282184
12.8246	12.6869	0.396219	0.286124
12.8251	12.6864	0.396074	0.287991
12.8256	12.686	0.396196	0.291264
12.8261	12.6855	0.396867	0.297558
12.8265	12.685	0.397035	0.301941
12.827	12.6845	0.394309	0.30542
12.8275	12.684	0.395104	0.308015
12.8279	12.6836	0.39649	0.310599
12.8284	12.6831	0.395011	0.314275
12.8289	12.6826	0.395652	0.318681
12.8294	12.6822	0.395676	0.32213
12.8298	12.6817	0.396345	0.321986
12.8303	12.6812	0.398598	0.325909
12.8308	12.6807	0.397547	0.330554
12.8312	12.6803	0.397631	0.335541
12.8317	12.6798	0.397324	0.335941
12.8322	12.6793	0.397404	0.337398
12.8327	12.6789	0.399002	0.338951
12.8331	12.6784	0.39798	0.341742
12.8336	12.6779	0.3988	0.344079
12.8341	12.6774	0.3978	0.34564
12.8346	12.677	0.396867	0.343375
12.835	12.6765	0.39968	0.34274
12.8355	12.676	0.399016	0.343476
12.836	12.6755	0.399027	0.343639
12.8364	12.675	0.396936	0.341207
12.8369	12.6746	0.39796	0.339912
12.8374	12.6741	0.398938	0.338579
12.8379	12.6736	0.399454	0.340846
12.8383	12.6731	0.39928	0.339488
12.8388	12.6727	0.397886	0.337271
12.8393	12.6722	0.397788	0.335216
12.8397	12.6718	0.398477	0.333036
12.8402	12.6713	0.397825	0.332038
12.8407	12.6708	0.399121	0.33219
12.8412	12.6703	0.399153	0.327904
12.8416	12.6699	0.398589	0.324362
12.8421	12.6694	0.397565	0.322766
12.8426	12.6689	0.399415	0.321827
12.8431	12.6685	0.398467	0.318762
12.8435	12.668	0.39856	0.317335
12.844	12.6675	0.397836	0.312055
12.8445	12.6671	0.398303	0.311269
12.8449	12.6666	0.398638	0.307932
12.8454	12.6661	0.398948	0.30841
12.8459	12.6656	0.396986	0.30398
12.8464	12.6651	0.397631	0.30013
12.8468	12.6647	0.400291	0.298332
12.8473	12.6642	0.398039	0.298252
12.8478	12.6637	0.397213	0.296104
12.8482	12.6633	0.396535	0.293551
12.8487	12.6628	0.397229	0.289486
12.8492	12.6623	0.398444	0.28714
12.8497	12.6619	0.399082	0.287466
12.8501	12.6614	0.397705	0.285068
12.8506	12.6609	0.396057	0.283072
12.8511	12.6605	0.395685	0.279762
12.8516	12.66	0.396531	0.27743
12.852	12.6595	0.397309	0.277745
12.8525	12.6591	0.396069	0.276342
12.853	12.6586	0.396712	0.274611
12.8534	12.6581	0.395473	0.272701
12.8539	12.6576	0.396979	0.272248
12.8544	12.6572	0.395954	0.273361
12.8549	12.6567	0.396602	0.274204
12.8553	12.6562	0.397145	0.273578
12.8558	12.6557	0.395909	0.273414
12.8563	12.6552	0.397676	0.274769
12.8567	12.6548	0.39616	0.275976
12.8572	12.6543	0.396265	0.279503
12.8577	12.6538	0.397376	0.280905
12.8582	12.6534	0.396652	0.28076
12.8586	12.6529	0.397772	0.283137
12.8591	12.6524	0.396889	0.285756
12.8596	12.652	0.397298	0.289501
12.8601	12.6515	0.39591	0.291844
12.8605	12.651	0.396469	0.292303
12.861	12.6505	0.397862	0.29382
12.8615	12.65	0.396159	0.299131
12.8619	12.6496	0.39638	0.302447
12.8624	12.6491	0.397146	0.303528
12.8629	12.6486	0.394977	0.303713
12.8634	12.6482	0.397672	0.305641
12.8638	12.6477	0.395353	0.308579
12.8643	12.6472	0.394277	0.308753
12.8648	12.6467	0.392715	0.310475
12.8652	12.6463	0.3925	0.309584
12.8657	12.6458	0.39301	0.312731
12.8662	12.6453	0.392752	0.314614
12.8667	12.6448	0.391276	0.316062
12.8671	12.6443	0.392629	0.318549
12.8676	12.6439	0.393648	0.316045
12.8681	12.6434	0.393366	0.318043
12.8686	12.6429	0.393648	0.321107
12.869	12.6425	0.392987	0.322309
12.8695	12.642	0.395047	0.320848
12.87	12.6415	0.393477	0.32082
12.8704	12.6411	0.3964	0.321854
12.8709	12.6406	0.39459	0.322251
12.8714	12.6401	0.391925	0.323071
12.8719	12.6397	0.395434	0.321892
12.8723	12.6392	0.394641	0.318606
12.8728	12.6387	0.394137	0.31825
12.8733	12.6383	0.394043	0.32085
12.8737	12.6378	0.393835	0.321088
12.8742	12.6373	0.393988	0.317501
12.8747	12.6368	0.393505	0.31685
12.8752	12.6364	0.395103	0.316398
12.8756	12.6359	0.392315	0.316244
12.8761	12.6354	0.392908	0.317561
12.8766	12.6349	0.394287	0.314773
12.8771	12.6345	0.393107	0.313537
12.8775	12.634	0.394153	0.312792
12.878	12.6335	0.395467	0.313767
12.8785	12.6331	0.392331	0.31446
12.8789	12.6326	0.392413	0.312543
12.8794	12.6321	0.393034	0.312209
12.8799	12.6317	0.392501	0.31234
12.8804	12.6312	0.3927	0.313699
12.8808	12.6307	0.392171	0.314635
12.8813	12.6302	0.39249	0.313262
12.8818	12.6298	0.391217	0.312435
12.8822	12.6293	0.39321	0.313849
12.8827	12.6288	0.393613	0.31595
12.8832	12.6284	0.391393	0.31536
12.8837	12.6279	0.391367	0.313898
12.8841	12.6274	0.392888	0.311796
12.8846	12.6269	0.392749	0.313443
12.8851	12.6265	0.39141	0.314436
12.8856	12.626	0.391399	0.313496
12.886	12.6255	0.392062	0.313193
12.8865	12.625	0.39202	0.309573
12.887	12.6245	0.393166	0.309763
12.8874	12.6241	0.392392	0.310883
12.8879	12.6236	0.392017	0.311126
12.8884	12.6231	0.391483	0.30752
12.8889	12.6226	0.391426	0.306193
12.8893	12.6222	0.392388	0.306125
12.8898	12.6217	0.392844	0.307229
12.8903	12.6212	0.390085	0.306265
12.8907	12.6208	0.390888	0.30485
12.8912	12.6203	0.390239	0.303021
12.8917	12.6198	0.391548	0.302839
12.8922	12.6193	0.392682	0.304534
12.8926	12.6189	0.390022	0.304919
12.8931	12.6184	0.389485	0.301842
12.8936	12.6179	0.391137	0.302802
12.8941	12.6175	0.390929	0.302893
12.8945	12.617	0.390153	0.303898
12.895	12.6165	0.388808	0.302419
12.8955	12.616	0.390393	0.303156
12.8959	12.6156	0.390577	0.301848
12.8964	12.6151	0.390259	0.301915
12.8969	12.6146	0.391207	0.305047
12.8974	12.6141	0.389365	0.303092
12.8978	12.6137	0.387932	0.300772
12.8983	12.6132	0.39061	0.299256
12.8988	12.6127	0.389492	0.299895
