# 1304     AichiSR QXAFS
# Start     : 8.9544
# End       : 9.0544
# Dir       : Backward
# Points    : 300
# ScanTime  : 1.01549
# Date      : 13.04.23 22:27
# Ring Cur. : 25.4[mA]
12.7557	12.6118	0.298081	0.228937
12.7562	12.6122	0.298005	0.227122
12.7566	12.6127	0.298521	0.229716
12.7571	12.6132	0.298994	0.23136
12.7576	12.6136	0.298191	0.231252
12.7581	12.6141	0.298237	0.231274
12.7585	12.6146	0.299999	0.230916
12.759	12.615	0.300469	0.231809
12.7595	12.6155	0.298405	0.232478
12.7599	12.616	0.300782	0.236683
12.7604	12.6165	0.301453	0.234823
12.7609	12.617	0.298719	0.231997
12.7614	12.6174	0.302002	0.233757
12.7618	12.6179	0.304101	0.236961
12.7623	12.6184	0.299146	0.233476
12.7628	12.6188	0.297975	0.233309
12.7632	12.6193	0.301146	0.233241
12.7637	12.6198	0.301483	0.233631
12.7642	12.6202	0.299155	0.234059
12.7647	12.6207	0.299875	0.236829
12.7651	12.6212	0.300172	0.234879
12.7656	12.6217	0.298906	0.232806
12.7661	12.6222	0.301825	0.235751
12.7666	12.6226	0.300241	0.236636
12.767	12.6231	0.300627	0.23683
12.7675	12.6235	0.299574	0.235325
12.768	12.624	0.30052	0.237166
12.7684	12.6245	0.301675	0.237658
12.7689	12.625	0.29998	0.238642
12.7694	12.6255	0.301572	0.239793
12.7699	12.6259	0.299856	0.238306
12.7703	12.6264	0.302	0.238539
12.7708	12.6269	0.299667	0.239276
12.7713	12.6274	0.301296	0.242047
12.7717	12.6279	0.300359	0.242282
12.7722	12.6283	0.298285	0.240091
12.7727	12.6288	0.302362	0.240586
12.7732	12.6293	0.301389	0.241272
12.7736	12.6297	0.302216	0.242638
12.7741	12.6302	0.300516	0.24245
12.7746	12.6307	0.301378	0.241114
12.7751	12.6311	0.303257	0.241253
12.7755	12.6316	0.304309	0.241687
12.776	12.6321	0.302252	0.240621
12.7765	12.6325	0.300669	0.241905
12.7769	12.633	0.300932	0.239729
12.7774	12.6335	0.302465	0.240513
12.7779	12.6339	0.299771	0.239645
12.7784	12.6344	0.29907	0.239057
12.7788	12.6349	0.3006	0.242427
12.7793	12.6354	0.301245	0.240906
12.7798	12.6358	0.301813	0.239679
12.7802	12.6363	0.303591	0.243159
12.7807	12.6368	0.303549	0.245232
12.7812	12.6373	0.300162	0.24425
12.7817	12.6378	0.302917	0.244287
12.7821	12.6382	0.304419	0.245669
12.7826	12.6387	0.303601	0.245601
12.7831	12.6392	0.302045	0.246181
12.7836	12.6396	0.302266	0.247313
12.784	12.6401	0.302138	0.245914
12.7845	12.6405	0.30194	0.245214
12.785	12.641	0.307142	0.250411
12.7854	12.6415	0.305765	0.248945
12.7859	12.642	0.301582	0.247713
12.7864	12.6424	0.301976	0.247162
12.7869	12.6429	0.304159	0.247246
12.7873	12.6433	0.302909	0.245592
12.7878	12.6438	0.302381	0.246979
12.7883	12.6443	0.302042	0.247164
12.7887	12.6448	0.300888	0.245077
12.7892	12.6452	0.299945	0.241178
12.7897	12.6457	0.301238	0.242908
12.7902	12.6462	0.303369	0.243339
12.7906	12.6467	0.29856	0.240633
12.7911	12.6472	0.301072	0.238802
12.7916	12.6477	0.304253	0.239149
12.7921	12.6481	0.303702	0.237882
12.7925	12.6486	0.303151	0.23727
12.793	12.6491	0.304403	0.237168
12.7935	12.6495	0.304891	0.233832
12.7939	12.65	0.30268	0.231092
12.7944	12.6505	0.304684	0.229348
12.7949	12.651	0.307079	0.230403
12.7954	12.6514	0.303887	0.228881
12.7958	12.6519	0.30501	0.225877
12.7963	12.6524	0.308871	0.224354
12.7968	12.6528	0.307509	0.22327
12.7972	12.6533	0.305821	0.222305
12.7977	12.6538	0.308013	0.221115
12.7982	12.6543	0.30656	0.218592
12.7987	12.6547	0.306846	0.215059
12.7991	12.6552	0.309064	0.215606
12.7996	12.6557	0.309625	0.216136
12.8001	12.6562	0.305716	0.214387
12.8006	12.6566	0.308128	0.212493
12.801	12.6571	0.308646	0.2131
12.8015	12.6576	0.308556	0.213054
12.802	12.6581	0.309328	0.214313
12.8024	12.6585	0.309058	0.214399
12.8029	12.659	0.308609	0.213343
12.8034	12.6595	0.311099	0.214597
12.8039	12.6599	0.310445	0.216096
12.8043	12.6604	0.310608	0.218788
12.8048	12.6609	0.310088	0.219017
12.8053	12.6614	0.30935	0.218707
12.8057	12.6618	0.311829	0.221301
12.8062	12.6623	0.311258	0.22326
12.8067	12.6628	0.312207	0.226544
12.8072	12.6632	0.312353	0.227328
12.8076	12.6637	0.310894	0.228855
12.8081	12.6642	0.313152	0.228849
12.8086	12.6646	0.313818	0.23249
12.8091	12.6651	0.313076	0.234678
12.8095	12.6656	0.310295	0.235348
12.81	12.6661	0.313327	0.236991
12.8105	12.6665	0.315011	0.239153
12.8109	12.667	0.313055	0.241519
12.8114	12.6675	0.313167	0.243934
12.8119	12.668	0.312865	0.245643
12.8124	12.6684	0.313004	0.246305
12.8128	12.6689	0.314675	0.249248
12.8133	12.6694	0.315305	0.253715
12.8138	12.6698	0.31306	0.254605
12.8142	12.6703	0.312697	0.256093
12.8147	12.6708	0.312868	0.255995
12.8152	12.6712	0.31659	0.259434
12.8157	12.6717	0.314517	0.261577
12.8161	12.6722	0.314156	0.2644
12.8166	12.6726	0.313786	0.265513
12.8171	12.6731	0.313976	0.263818
12.8176	12.6736	0.314894	0.267037
12.818	12.674	0.315487	0.268179
12.8185	12.6745	0.314603	0.270048
12.819	12.675	0.315276	0.270268
12.8194	12.6755	0.314069	0.269987
12.8199	12.676	0.317533	0.271402
12.8204	12.6764	0.316395	0.27331
12.8209	12.6769	0.315956	0.274148
12.8213	12.6774	0.314946	0.274439
12.8218	12.6779	0.317372	0.273446
12.8223	12.6784	0.317556	0.272094
12.8227	12.6788	0.315358	0.272717
12.8232	12.6793	0.316593	0.273489
12.8237	12.6798	0.316838	0.271071
12.8242	12.6802	0.314598	0.267617
12.8246	12.6807	0.319307	0.267454
12.8251	12.6812	0.318691	0.264899
12.8256	12.6817	0.315953	0.263496
12.8261	12.6821	0.31783	0.261233
12.8265	12.6826	0.317236	0.258597
12.827	12.6831	0.317801	0.254851
12.8275	12.6835	0.316555	0.253562
12.8279	12.684	0.316897	0.252686
12.8284	12.6845	0.315357	0.249501
12.8289	12.6849	0.314902	0.244889
12.8294	12.6854	0.318988	0.242721
12.8298	12.6859	0.317887	0.240062
12.8303	12.6864	0.315609	0.237632
12.8308	12.6869	0.31724	0.234812
12.8312	12.6874	0.317721	0.230919
12.8317	12.6878	0.318945	0.226485
12.8322	12.6883	0.319796	0.225015
12.8327	12.6888	0.320476	0.224814
12.8331	12.6892	0.320532	0.2218
12.8336	12.6897	0.319001	0.219446
12.8341	12.6901	0.321385	0.220447
12.8346	12.6906	0.319346	0.221108
12.835	12.6911	0.317063	0.223747
12.8355	12.6916	0.320958	0.227332
12.836	12.692	0.318271	0.228027
12.8364	12.6925	0.32096	0.232967
12.8369	12.693	0.320324	0.239978
12.8374	12.6934	0.320337	0.244926
12.8379	12.6939	0.318058	0.248283
12.8383	12.6944	0.31821	0.249487
12.8388	12.6948	0.321878	0.255669
12.8393	12.6953	0.318827	0.257271
12.8397	12.6958	0.319377	0.259239
12.8402	12.6963	0.320836	0.261035
12.8407	12.6967	0.318392	0.25811
12.8412	12.6972	0.319949	0.258464
12.8416	12.6977	0.319771	0.257907
12.8421	12.6982	0.319613	0.256159
12.8426	12.6986	0.319544	0.252122
12.8431	12.6991	0.316858	0.247647
12.8435	12.6996	0.320739	0.245444
12.844	12.7	0.318757	0.241479
12.8445	12.7005	0.319092	0.237679
12.8449	12.701	0.319697	0.2359
12.8454	12.7015	0.319034	0.231165
12.8459	12.7019	0.319764	0.226809
12.8464	12.7024	0.319088	0.228516
12.8468	12.7029	0.320302	0.226733
12.8473	12.7033	0.319898	0.225089
12.8478	12.7038	0.319493	0.225598
12.8482	12.7043	0.322547	0.230276
12.8487	12.7048	0.32045	0.234522
12.8492	12.7052	0.317978	0.239521
12.8497	12.7057	0.321566	0.247228
12.8501	12.7062	0.319464	0.253705
12.8506	12.7067	0.32123	0.262607
12.8511	12.7072	0.321161	0.273945
12.8516	12.7076	0.324291	0.28935
12.852	12.7081	0.320677	0.29662
12.8525	12.7086	0.319884	0.311017
12.853	12.7091	0.323727	0.326957
12.8534	12.7095	0.32202	0.339664
12.8539	12.71	0.31953	0.352736
12.8544	12.7105	0.32175	0.36756
12.8549	12.7109	0.323689	0.379613
12.8553	12.7114	0.323888	0.390304
12.8558	12.7119	0.323018	0.406229
12.8563	12.7123	0.322961	0.414734
12.8567	12.7128	0.320554	0.421946
12.8572	12.7133	0.321612	0.432421
12.8577	12.7137	0.323386	0.44203
12.8582	12.7142	0.320763	0.448908
12.8586	12.7147	0.321496	0.458132
12.8591	12.7152	0.321644	0.467238
12.8596	12.7157	0.321943	0.473069
12.8601	12.7161	0.322535	0.483311
12.8605	12.7166	0.323078	0.493195
12.861	12.7171	0.321415	0.50253
12.8615	12.7176	0.322448	0.506131
12.8619	12.718	0.323492	0.512383
12.8624	12.7185	0.322996	0.514104
12.8629	12.719	0.32155	0.509984
12.8634	12.7194	0.321721	0.507712
12.8638	12.7199	0.321392	0.499622
12.8643	12.7204	0.32165	0.498158
12.8648	12.7208	0.320328	0.495621
12.8652	12.7213	0.320042	0.497916
12.8657	12.7218	0.319564	0.505864
12.8662	12.7222	0.31979	0.516943
12.8667	12.7227	0.320583	0.538995
12.8671	12.7232	0.321033	0.573324
12.8676	12.7236	0.319914	0.618533
12.8681	12.7241	0.317869	0.663586
12.8686	12.7246	0.316712	0.71228
12.869	12.7251	0.317963	0.762077
12.8695	12.7255	0.317509	0.801267
12.87	12.726	0.318155	0.841524
12.8704	12.7265	0.318308	0.870939
12.8709	12.727	0.317277	0.881728
12.8714	12.7274	0.318522	0.892806
12.8719	12.7279	0.321854	0.914285
12.8723	12.7284	0.319538	0.919344
12.8728	12.7288	0.318773	0.927036
12.8733	12.7293	0.321061	0.935394
12.8737	12.7298	0.320507	0.938968
12.8742	12.7302	0.319761	0.939198
12.8747	12.7307	0.323137	0.949759
12.8752	12.7312	0.320971	0.955392
12.8756	12.7317	0.318872	0.946913
12.8761	12.7322	0.320891	0.951633
12.8766	12.7326	0.322467	0.964665
12.8771	12.7331	0.322065	0.958245
12.8775	12.7336	0.318888	0.957146
12.878	12.734	0.3204	0.962694
12.8785	12.7345	0.322735	0.962455
12.8789	12.735	0.321288	0.962463
12.8794	12.7355	0.322437	0.972645
12.8799	12.736	0.321644	0.975793
12.8804	12.7364	0.320861	0.965264
12.8808	12.7369	0.322128	0.970909
12.8813	12.7374	0.324575	0.97549
12.8818	12.7379	0.323068	0.976333
12.8822	12.7383	0.322098	0.975453
12.8827	12.7388	0.321977	0.974069
12.8832	12.7393	0.323114	0.973915
12.8837	12.7397	0.322283	0.975451
12.8841	12.7402	0.322205	0.977078
12.8846	12.7407	0.322548	0.981202
12.8851	12.7412	0.321089	0.976271
12.8856	12.7416	0.324476	0.978767
12.886	12.7421	0.322916	0.981435
12.8865	12.7426	0.323922	0.982192
12.887	12.743	0.322233	0.980585
12.8874	12.7435	0.323689	0.981433
12.8879	12.744	0.326501	0.987189
12.8884	12.7444	0.324173	0.984344
12.8889	12.7449	0.324747	0.988977
12.8893	12.7454	0.323628	0.987272
12.8898	12.7459	0.321684	0.9837
12.8903	12.7464	0.324082	0.984192
12.8907	12.7468	0.324505	0.989643
12.8912	12.7473	0.324297	0.986107
12.8917	12.7478	0.32288	0.988821
12.8922	12.7483	0.325355	0.989803
12.8926	12.7487	0.325987	0.987342
12.8931	12.7492	0.324166	0.985306
12.8936	12.7496	0.326203	0.996848
12.8941	12.7501	0.325495	0.992516
12.8945	12.7506	0.323428	0.982248
12.895	12.7511	0.325095	0.990581
12.8955	12.7515	0.325637	0.994286
12.8959	12.752	0.32444	0.9889
12.8964	12.7525	0.323092	0.987195
12.8969	12.7529	0.32486	0.989973
12.8974	12.7534	0.324217	0.990961
12.8978	12.7539	0.324187	0.984168
12.8983	12.7543	0.324118	0.99099
12.8988	12.7548	0.324242	0.992366
