# 1304     AichiSR QXAFS
# Start     : 8.9544
# End       : 9.0544
# Dir       : Forward
# Points    : 300
# ScanTime  : 1.01549
# Date      : 13.04.23 22:27
# Ring Cur. : 25.4[mA]
12.7557	12.7557	0.401648	1.22535
12.7562	12.7553	0.400905	1.22476
12.7566	12.7548	0.400508	1.22519
12.7571	12.7543	0.400296	1.2227
12.7576	12.7538	0.402545	1.22278
12.7581	12.7534	0.402439	1.22423
12.7585	12.7529	0.401718	1.22369
12.759	12.7524	0.400825	1.21822
12.7595	12.752	0.401376	1.21946
12.7599	12.7515	0.40034	1.21836
12.7604	12.751	0.400514	1.22151
12.7609	12.7506	0.400086	1.22365
12.7614	12.7501	0.399431	1.21713
12.7618	12.7496	0.400646	1.21839
12.7623	12.7492	0.401004	1.21685
12.7628	12.7487	0.400376	1.22176
12.7632	12.7482	0.399386	1.22134
12.7637	12.7478	0.401744	1.22095
12.7642	12.7473	0.400779	1.2141
12.7647	12.7468	0.401001	1.21563
12.7651	12.7464	0.400786	1.21714
12.7656	12.7459	0.397771	1.21756
12.7661	12.7454	0.398996	1.21621
12.7666	12.7449	0.400285	1.21242
12.767	12.7444	0.400147	1.21419
12.7675	12.744	0.400861	1.21655
12.768	12.7435	0.400231	1.21432
12.7684	12.743	0.400237	1.21397
12.7689	12.7426	0.399111	1.21196
12.7694	12.7421	0.400104	1.20867
12.7699	12.7416	0.399707	1.21346
12.7703	12.7412	0.39902	1.21443
12.7708	12.7407	0.398996	1.20888
12.7713	12.7402	0.397457	1.20763
12.7717	12.7397	0.398871	1.20648
12.7722	12.7393	0.399097	1.20905
12.7727	12.7388	0.399492	1.21005
12.7732	12.7383	0.399779	1.2072
12.7736	12.7379	0.399044	1.20256
12.7741	12.7374	0.398807	1.20215
12.7746	12.7369	0.400062	1.20324
12.7751	12.7364	0.397939	1.20214
12.7755	12.736	0.397978	1.19805
12.776	12.7355	0.398114	1.19738
12.7765	12.735	0.398286	1.19685
12.7769	12.7345	0.398676	1.19701
12.7774	12.734	0.396469	1.19771
12.7779	12.7336	0.397191	1.19395
12.7784	12.7331	0.398414	1.19037
12.7788	12.7326	0.397032	1.18744
12.7793	12.7321	0.397579	1.18896
12.7798	12.7317	0.396125	1.18198
12.7802	12.7312	0.398723	1.17575
12.7807	12.7307	0.396843	1.17639
12.7812	12.7302	0.397624	1.17271
12.7817	12.7298	0.397424	1.17018
12.7821	12.7293	0.396301	1.16627
12.7826	12.7288	0.396807	1.15883
12.7831	12.7284	0.396658	1.15136
12.7836	12.7279	0.397413	1.14402
12.784	12.7274	0.398235	1.13583
12.7845	12.727	0.393328	1.12285
12.785	12.7265	0.393596	1.10448
12.7854	12.726	0.393733	1.08309
12.7859	12.7255	0.392392	1.05166
12.7864	12.7251	0.390372	1.01395
12.7869	12.7246	0.388876	0.970094
12.7873	12.7241	0.389256	0.914943
12.7878	12.7236	0.392606	0.851679
12.7883	12.7232	0.393389	0.790548
12.7887	12.7227	0.396104	0.737282
12.7892	12.7222	0.394878	0.691531
12.7897	12.7218	0.393229	0.653316
12.7902	12.7213	0.394931	0.631291
12.7906	12.7208	0.396305	0.618052
12.7911	12.7204	0.395089	0.611452
12.7916	12.7199	0.393616	0.612034
12.7921	12.7194	0.39423	0.613495
12.7925	12.719	0.395236	0.61754
12.793	12.7185	0.395729	0.623752
12.7935	12.718	0.397044	0.629103
12.7939	12.7176	0.394286	0.626823
12.7944	12.7171	0.39343	0.622049
12.7949	12.7166	0.394804	0.614807
12.7954	12.7161	0.393903	0.608806
12.7958	12.7157	0.395199	0.598338
12.7963	12.7152	0.391407	0.584333
12.7968	12.7147	0.392199	0.574236
12.7972	12.7142	0.393166	0.562071
12.7977	12.7137	0.39421	0.555247
12.7982	12.7133	0.395622	0.547408
12.7987	12.7128	0.392196	0.533953
12.7991	12.7123	0.393679	0.522636
12.7996	12.7119	0.39472	0.511618
12.8001	12.7114	0.393271	0.497916
12.8006	12.7109	0.392632	0.485374
12.801	12.7104	0.391387	0.469063
12.8015	12.71	0.392593	0.453889
12.802	12.7095	0.39417	0.435454
12.8024	12.709	0.392795	0.422331
12.8029	12.7086	0.394032	0.407293
12.8034	12.7081	0.39298	0.389616
12.8039	12.7076	0.392705	0.370825
12.8043	12.7072	0.39312	0.355392
12.8048	12.7067	0.39148	0.341819
12.8053	12.7062	0.393613	0.331145
12.8057	12.7057	0.391731	0.318651
12.8062	12.7052	0.391335	0.305132
12.8067	12.7047	0.392038	0.295326
12.8072	12.7043	0.39264	0.288497
12.8076	12.7038	0.391075	0.284554
12.8081	12.7033	0.391623	0.279895
12.8086	12.7028	0.390615	0.273699
12.8091	12.7024	0.391967	0.274267
12.8095	12.7019	0.391877	0.274744
12.81	12.7015	0.391905	0.278315
12.8105	12.701	0.390519	0.280762
12.8109	12.7005	0.391212	0.283501
12.8114	12.7	0.39169	0.28797
12.8119	12.6996	0.390556	0.292343
12.8124	12.6991	0.391286	0.299015
12.8128	12.6986	0.389909	0.301089
12.8133	12.6982	0.390684	0.304356
12.8138	12.6977	0.391854	0.307708
12.8142	12.6972	0.389278	0.311683
12.8147	12.6968	0.390568	0.316112
12.8152	12.6963	0.388953	0.316113
12.8157	12.6958	0.389271	0.315548
12.8161	12.6953	0.389207	0.314733
12.8166	12.6948	0.390052	0.313778
12.8171	12.6944	0.391338	0.313459
12.8176	12.6939	0.388949	0.309067
12.818	12.6934	0.389132	0.302444
12.8185	12.693	0.391445	0.300691
12.819	12.6925	0.393489	0.296962
12.8194	12.692	0.390352	0.290214
12.8199	12.6916	0.387999	0.282803
12.8204	12.6911	0.389362	0.276795
12.8209	12.6906	0.390021	0.271593
12.8213	12.6901	0.387173	0.268156
12.8218	12.6897	0.388528	0.269465
12.8223	12.6892	0.387801	0.266624
12.8227	12.6888	0.388217	0.264934
12.8232	12.6883	0.390449	0.268342
12.8237	12.6878	0.388868	0.272223
12.8242	12.6874	0.387905	0.27561
12.8246	12.6869	0.388105	0.28017
12.8251	12.6864	0.385675	0.281369
12.8256	12.6859	0.387623	0.286036
12.8261	12.6854	0.385398	0.290776
12.8265	12.6849	0.386169	0.296203
12.827	12.6845	0.385731	0.298401
12.8275	12.684	0.385542	0.299176
12.8279	12.6835	0.387261	0.303258
12.8284	12.6831	0.386598	0.306993
12.8289	12.6826	0.385501	0.312467
12.8294	12.6821	0.386849	0.313903
12.8298	12.6817	0.38598	0.315131
12.8303	12.6812	0.388352	0.317633
12.8308	12.6807	0.388929	0.322475
12.8312	12.6802	0.389139	0.327461
12.8317	12.6798	0.390097	0.329913
12.8322	12.6793	0.38858	0.329545
12.8327	12.6788	0.39142	0.332266
12.8331	12.6784	0.389886	0.334578
12.8336	12.6779	0.390781	0.336055
12.8341	12.6774	0.389318	0.336149
12.8346	12.6769	0.389077	0.335055
12.835	12.6764	0.390391	0.334778
12.8355	12.676	0.390791	0.335702
12.836	12.6755	0.390443	0.336858
12.8364	12.675	0.388651	0.33463
12.8369	12.6745	0.389737	0.332739
12.8374	12.674	0.391821	0.333028
12.8379	12.6736	0.391006	0.331627
12.8383	12.6731	0.390589	0.33277
12.8388	12.6726	0.391133	0.329958
12.8393	12.6722	0.391385	0.328447
12.8397	12.6717	0.39112	0.326511
12.8402	12.6712	0.39073	0.325296
12.8407	12.6708	0.391584	0.325382
12.8412	12.6703	0.390701	0.321659
12.8416	12.6698	0.389976	0.317515
12.8421	12.6694	0.391527	0.319219
12.8426	12.6689	0.390841	0.314732
12.8431	12.6684	0.390796	0.312532
12.8435	12.668	0.390975	0.310611
12.844	12.6675	0.391836	0.306181
12.8445	12.667	0.392968	0.304411
12.8449	12.6665	0.390813	0.303377
12.8454	12.6661	0.390978	0.301487
12.8459	12.6656	0.391087	0.298924
12.8464	12.6651	0.39072	0.294419
12.8468	12.6646	0.391881	0.293143
12.8473	12.6642	0.390238	0.291992
12.8478	12.6637	0.391461	0.290563
12.8482	12.6632	0.390991	0.287819
12.8487	12.6628	0.391408	0.283655
12.8492	12.6623	0.394113	0.283785
12.8497	12.6618	0.392221	0.282596
12.8501	12.6614	0.390789	0.281115
12.8506	12.6609	0.391321	0.277466
12.8511	12.6604	0.389689	0.274697
12.8516	12.6599	0.392536	0.273217
12.852	12.6595	0.390808	0.272704
12.8525	12.659	0.392008	0.273249
12.853	12.6586	0.389665	0.270615
12.8534	12.6581	0.389962	0.268104
12.8539	12.6576	0.390675	0.268506
12.8544	12.6571	0.392032	0.269797
12.8549	12.6567	0.390031	0.2692
12.8553	12.6562	0.391989	0.26977
12.8558	12.6557	0.391366	0.268383
12.8563	12.6552	0.391666	0.271863
12.8567	12.6547	0.392046	0.273546
12.8572	12.6543	0.390351	0.275355
12.8577	12.6538	0.392325	0.276969
12.8582	12.6533	0.390309	0.276793
12.8586	12.6528	0.391244	0.279955
12.8591	12.6524	0.391273	0.284196
12.8596	12.6519	0.391958	0.286363
12.8601	12.6514	0.390632	0.286438
12.8605	12.651	0.390656	0.288358
12.861	12.6505	0.3933	0.292032
12.8615	12.65	0.392335	0.29478
12.8619	12.6495	0.390459	0.29774
12.8624	12.6491	0.391902	0.299124
12.8629	12.6486	0.3896	0.300074
12.8634	12.6481	0.392437	0.303212
12.8638	12.6477	0.391925	0.305575
12.8643	12.6472	0.389261	0.308761
12.8648	12.6467	0.388776	0.307337
12.8652	12.6462	0.388269	0.307932
12.8657	12.6457	0.389116	0.30986
12.8662	12.6453	0.388746	0.310425
12.8667	12.6448	0.387262	0.312596
12.8671	12.6443	0.389002	0.313435
12.8676	12.6438	0.388971	0.314491
12.8681	12.6434	0.389638	0.314599
12.8686	12.6429	0.390337	0.317715
12.869	12.6424	0.390916	0.319368
12.8695	12.642	0.391152	0.318399
12.87	12.6415	0.390456	0.317902
12.8704	12.641	0.391525	0.319191
12.8709	12.6406	0.391965	0.319457
12.8714	12.6401	0.390486	0.319027
12.8719	12.6396	0.390715	0.317727
12.8723	12.6392	0.390296	0.316742
12.8728	12.6387	0.391922	0.316378
12.8733	12.6382	0.390552	0.316521
12.8737	12.6378	0.39025	0.31669
12.8742	12.6373	0.391123	0.31502
12.8747	12.6368	0.390696	0.314717
12.8752	12.6363	0.391528	0.313938
12.8756	12.6359	0.391676	0.314376
12.8761	12.6354	0.388989	0.313224
12.8766	12.6349	0.390756	0.311532
12.8771	12.6344	0.391047	0.311468
12.8775	12.634	0.391324	0.310548
12.878	12.6335	0.390716	0.312249
12.8785	12.633	0.389514	0.311489
12.8789	12.6326	0.389744	0.311247
12.8794	12.6321	0.389075	0.309171
12.8799	12.6316	0.390168	0.311458
12.8804	12.6312	0.392085	0.311552
12.8808	12.6307	0.389909	0.313478
12.8813	12.6302	0.39053	0.311286
12.8818	12.6297	0.389626	0.31088
12.8822	12.6293	0.390548	0.311939
12.8827	12.6288	0.388614	0.31216
12.8832	12.6283	0.388165	0.313969
12.8837	12.6279	0.388801	0.311379
12.8841	12.6274	0.389802	0.311349
12.8846	12.6269	0.391627	0.31079
12.8851	12.6264	0.391007	0.310913
12.8856	12.6259	0.386976	0.310577
12.886	12.6255	0.389296	0.309975
12.8865	12.625	0.388913	0.307486
12.887	12.6245	0.38972	0.307614
12.8874	12.624	0.389441	0.308866
12.8879	12.6235	0.38794	0.306795
12.8884	12.6231	0.387047	0.304748
12.8889	12.6226	0.389261	0.303885
12.8893	12.6222	0.387575	0.304354
12.8898	12.6217	0.39106	0.304654
12.8903	12.6212	0.385507	0.303158
12.8907	12.6207	0.388291	0.301823
12.8912	12.6202	0.388371	0.301046
12.8917	12.6198	0.388662	0.301185
12.8922	12.6193	0.388356	0.302184
12.8926	12.6188	0.386823	0.302671
12.8931	12.6184	0.387232	0.300983
12.8936	12.6179	0.3889	0.300186
12.8941	12.6174	0.388285	0.30141
12.8945	12.6169	0.388389	0.302234
12.895	12.6165	0.386604	0.300938
12.8955	12.616	0.386007	0.300358
12.8959	12.6155	0.386099	0.299056
12.8964	12.615	0.387326	0.299374
12.8969	12.6146	0.387767	0.300614
12.8974	12.6141	0.385039	0.300441
12.8978	12.6136	0.385391	0.297452
12.8983	12.6132	0.386553	0.296798
12.8988	12.6127	0.387297	0.297248
