# 1304     AichiSR QXAFS
# Start     : 8.9544
# End       : 9.0544
# Dir       : Backward
# Points    : 300
# ScanTime  : 1.01549
# Date      : 13.04.23 22:21
# Ring Cur. : 25.4[mA]
12.7557	12.6117	0.304514	0.233946
12.7562	12.6122	0.307348	0.233899
12.7566	12.6127	0.307489	0.236146
12.7571	12.6131	0.306055	0.237199
12.7576	12.6136	0.306129	0.238514
12.7581	12.6141	0.305479	0.237236
12.7585	12.6145	0.310327	0.239197
12.759	12.615	0.307017	0.239918
12.7595	12.6155	0.305517	0.238714
12.7599	12.616	0.306179	0.239885
12.7604	12.6164	0.308903	0.239045
12.7609	12.6169	0.308765	0.239842
12.7614	12.6174	0.306153	0.238466
12.7618	12.6179	0.306617	0.24046
12.7623	12.6183	0.306722	0.239348
12.7628	12.6188	0.307145	0.239903
12.7632	12.6193	0.310757	0.240452
12.7637	12.6197	0.309295	0.241054
12.7642	12.6202	0.307846	0.240449
12.7647	12.6207	0.308695	0.241631
12.7651	12.6212	0.308292	0.240211
12.7656	12.6217	0.309053	0.239541
12.7661	12.6221	0.309384	0.242902
12.7666	12.6226	0.307345	0.243258
12.767	12.623	0.306125	0.241449
12.7675	12.6235	0.30546	0.24008
12.768	12.624	0.310376	0.244895
12.7684	12.6245	0.30808	0.244094
12.7689	12.6249	0.304887	0.244927
12.7694	12.6254	0.307461	0.245104
12.7699	12.6259	0.308136	0.244887
12.7703	12.6264	0.310118	0.246377
12.7708	12.6269	0.309147	0.247539
12.7713	12.6273	0.309161	0.249335
12.7717	12.6278	0.308672	0.246937
12.7722	12.6283	0.308303	0.246623
12.7727	12.6288	0.311888	0.247671
12.7732	12.6292	0.309461	0.248425
12.7736	12.6297	0.307555	0.247715
12.7741	12.6301	0.308689	0.246424
12.7746	12.6306	0.307837	0.244147
12.7751	12.6311	0.310975	0.245313
12.7755	12.6316	0.30958	0.247962
12.776	12.6321	0.308218	0.246484
12.7765	12.6325	0.309265	0.246438
12.7769	12.633	0.309209	0.246341
12.7774	12.6334	0.31219	0.246592
12.7779	12.6339	0.311211	0.249369
12.7784	12.6344	0.308282	0.248918
12.7788	12.6349	0.309757	0.24808
12.7793	12.6353	0.308728	0.246883
12.7798	12.6358	0.311248	0.248408
12.7802	12.6363	0.311777	0.251119
12.7807	12.6368	0.309871	0.251288
12.7812	12.6372	0.308623	0.249
12.7817	12.6377	0.309516	0.249392
12.7821	12.6382	0.312597	0.250912
12.7826	12.6387	0.309951	0.252564
12.7831	12.6391	0.309731	0.252936
12.7836	12.6396	0.310971	0.25379
12.784	12.64	0.309616	0.252071
12.7845	12.6405	0.312006	0.253371
12.785	12.641	0.312668	0.2561
12.7854	12.6415	0.312611	0.256406
12.7859	12.6419	0.310331	0.253725
12.7864	12.6424	0.311781	0.252262
12.7869	12.6428	0.313455	0.254845
12.7873	12.6433	0.309428	0.253627
12.7878	12.6438	0.308897	0.253276
12.7883	12.6442	0.3088	0.251943
12.7887	12.6447	0.307215	0.247842
12.7892	12.6452	0.307856	0.247185
12.7897	12.6457	0.309399	0.25033
12.7902	12.6462	0.310308	0.249529
12.7906	12.6467	0.308105	0.246357
12.7911	12.6471	0.310008	0.245188
12.7916	12.6476	0.312963	0.246108
12.7921	12.6481	0.311171	0.245958
12.7925	12.6486	0.310736	0.24441
12.793	12.649	0.3125	0.243467
12.7935	12.6495	0.311088	0.23895
12.7939	12.65	0.311415	0.23626
12.7944	12.6504	0.312741	0.237361
12.7949	12.6509	0.311852	0.235691
12.7954	12.6514	0.310798	0.232764
12.7958	12.6519	0.311852	0.230037
12.7963	12.6523	0.31297	0.229572
12.7968	12.6528	0.313253	0.22903
12.7972	12.6533	0.311862	0.226607
12.7977	12.6537	0.315287	0.22447
12.7982	12.6542	0.312364	0.221285
12.7987	12.6547	0.314758	0.221533
12.7991	12.6552	0.315672	0.221097
12.7996	12.6556	0.31339	0.220373
12.8001	12.6561	0.311568	0.216191
12.8006	12.6566	0.31222	0.215629
12.801	12.6571	0.316016	0.216964
12.8015	12.6576	0.313634	0.216465
12.802	12.658	0.312814	0.216704
12.8024	12.6585	0.312781	0.215562
12.8029	12.659	0.313437	0.215925
12.8034	12.6594	0.315083	0.216671
12.8039	12.6599	0.315014	0.219965
12.8043	12.6604	0.314258	0.220557
12.8048	12.6608	0.313573	0.220361
12.8053	12.6613	0.315035	0.222915
12.8057	12.6618	0.314838	0.224403
12.8062	12.6623	0.313997	0.227445
12.8067	12.6627	0.312986	0.228422
12.8072	12.6632	0.315434	0.229361
12.8076	12.6636	0.313427	0.229054
12.8081	12.6641	0.315241	0.232555
12.8086	12.6646	0.316157	0.234686
12.8091	12.6651	0.313586	0.235411
12.8095	12.6655	0.313243	0.236289
12.81	12.666	0.315053	0.239123
12.8105	12.6665	0.317527	0.242407
12.8109	12.667	0.314808	0.243352
12.8114	12.6675	0.313602	0.244543
12.8119	12.6679	0.314881	0.247929
12.8124	12.6684	0.31487	0.248159
12.8128	12.6689	0.315848	0.250623
12.8133	12.6693	0.316128	0.255399
12.8138	12.6698	0.314611	0.256164
12.8142	12.6702	0.313403	0.255569
12.8147	12.6707	0.314715	0.257229
12.8152	12.6712	0.318808	0.261634
12.8157	12.6717	0.31603	0.263931
12.8161	12.6721	0.312449	0.263569
12.8166	12.6726	0.314763	0.264598
12.8171	12.6731	0.316384	0.266944
12.8176	12.6735	0.319106	0.270831
12.818	12.674	0.318826	0.270931
12.8185	12.6745	0.315834	0.271411
12.819	12.675	0.313732	0.270207
12.8194	12.6754	0.314989	0.27071
12.8199	12.6759	0.3194	0.274809
12.8204	12.6764	0.316812	0.273362
12.8209	12.6769	0.314499	0.272592
12.8213	12.6774	0.316883	0.274085
12.8218	12.6778	0.316272	0.272432
12.8223	12.6783	0.315647	0.272184
12.8227	12.6788	0.317272	0.274604
12.8232	12.6792	0.316656	0.273618
12.8237	12.6797	0.313041	0.269136
12.8242	12.6802	0.315082	0.267215
12.8246	12.6807	0.318673	0.268282
12.8251	12.6811	0.318351	0.266145
12.8256	12.6816	0.315919	0.263083
12.8261	12.6821	0.316697	0.260271
12.8265	12.6825	0.317049	0.256933
12.827	12.683	0.317228	0.2556
12.8275	12.6835	0.317875	0.255572
12.8279	12.684	0.315782	0.252643
12.8284	12.6844	0.314432	0.247665
12.8289	12.6849	0.316274	0.245783
12.8294	12.6854	0.318194	0.24455
12.8298	12.6859	0.316648	0.242328
12.8303	12.6864	0.316929	0.238872
12.8308	12.6868	0.317835	0.234429
12.8312	12.6873	0.319529	0.230236
12.8317	12.6878	0.320155	0.228803
12.8322	12.6883	0.322245	0.228173
12.8327	12.6887	0.321453	0.224635
12.8331	12.6892	0.317778	0.220418
12.8336	12.6896	0.320511	0.220082
12.8341	12.6901	0.323852	0.221345
12.8346	12.6906	0.320605	0.222928
12.835	12.6911	0.317889	0.224668
12.8355	12.6915	0.319709	0.226139
12.836	12.692	0.32056	0.229947
12.8364	12.6925	0.321135	0.235028
12.8369	12.6929	0.320987	0.242062
12.8374	12.6934	0.321424	0.24664
12.8379	12.6939	0.319982	0.247734
12.8383	12.6943	0.322136	0.251995
12.8388	12.6948	0.32383	0.257164
12.8393	12.6953	0.322573	0.261096
12.8397	12.6958	0.320547	0.261837
12.8402	12.6962	0.320281	0.258321
12.8407	12.6967	0.321774	0.260045
12.8412	12.6972	0.320657	0.261018
12.8416	12.6977	0.324095	0.261507
12.8421	12.6981	0.322042	0.258001
12.8426	12.6986	0.319433	0.25257
12.8431	12.6991	0.322199	0.250635
12.8435	12.6995	0.324475	0.24968
12.844	12.7	0.323497	0.245321
12.8445	12.7005	0.320127	0.240019
12.8449	12.7009	0.323925	0.235843
12.8454	12.7014	0.321729	0.232607
12.8459	12.7019	0.321545	0.228985
12.8464	12.7023	0.323768	0.231557
12.8468	12.7028	0.323852	0.229009
12.8473	12.7033	0.321468	0.225945
12.8478	12.7037	0.323019	0.227651
12.8482	12.7042	0.324666	0.232599
12.8487	12.7047	0.323504	0.239596
12.8492	12.7052	0.323032	0.243051
12.8497	12.7057	0.323877	0.249277
12.8501	12.7062	0.3249	0.255068
12.8506	12.7066	0.324254	0.267959
12.8511	12.7071	0.326143	0.280637
12.8516	12.7076	0.327612	0.292791
12.852	12.7081	0.323061	0.299599
12.8525	12.7085	0.326769	0.314534
12.853	12.709	0.327663	0.329882
12.8534	12.7095	0.327004	0.344839
12.8539	12.7099	0.324672	0.358095
12.8544	12.7104	0.32665	0.37067
12.8549	12.7109	0.326698	0.382431
12.8553	12.7114	0.325901	0.395489
12.8558	12.7118	0.326897	0.409525
12.8563	12.7123	0.328206	0.422149
12.8567	12.7128	0.323439	0.426028
12.8572	12.7132	0.326709	0.436362
12.8577	12.7137	0.328649	0.449294
12.8582	12.7142	0.326436	0.457301
12.8586	12.7147	0.325513	0.463414
12.8591	12.7151	0.326478	0.470654
12.8596	12.7156	0.328248	0.480394
12.8601	12.7161	0.327218	0.488144
12.8605	12.7166	0.327399	0.502172
12.861	12.717	0.326033	0.509807
12.8615	12.7175	0.324962	0.511167
12.8619	12.718	0.327558	0.519061
12.8624	12.7185	0.32668	0.519983
12.8629	12.7189	0.324734	0.517371
12.8634	12.7194	0.325454	0.515215
12.8638	12.7198	0.327577	0.511603
12.8643	12.7203	0.326614	0.506398
12.8648	12.7208	0.325786	0.504306
12.8652	12.7213	0.327647	0.513515
12.8657	12.7217	0.326206	0.515879
12.8662	12.7222	0.323928	0.523764
12.8667	12.7227	0.326141	0.54996
12.8671	12.7231	0.325275	0.584769
12.8676	12.7236	0.323348	0.625679
12.8681	12.7241	0.325238	0.676308
12.8686	12.7245	0.323059	0.725776
12.869	12.725	0.323208	0.769968
12.8695	12.7255	0.322054	0.816507
12.87	12.726	0.324287	0.85818
12.8704	12.7264	0.324457	0.882466
12.8709	12.7269	0.324401	0.897678
12.8714	12.7274	0.326693	0.91695
12.8719	12.7279	0.326966	0.933145
12.8723	12.7283	0.326482	0.940407
12.8728	12.7288	0.326124	0.950631
12.8733	12.7293	0.326851	0.952339
12.8737	12.7297	0.326164	0.956077
12.8742	12.7302	0.326522	0.958646
12.8747	12.7307	0.326551	0.966155
12.8752	12.7312	0.327109	0.971391
12.8756	12.7316	0.325413	0.965761
12.8761	12.7321	0.328096	0.972379
12.8766	12.7326	0.328206	0.979624
12.8771	12.733	0.327465	0.979623
12.8775	12.7335	0.328394	0.983033
12.878	12.734	0.327319	0.986105
12.8785	12.7345	0.328657	0.985159
12.8789	12.7349	0.327953	0.984305
12.8794	12.7354	0.328667	0.992486
12.8799	12.7359	0.328237	0.991659
12.8804	12.7364	0.326357	0.986297
12.8808	12.7369	0.329333	0.987861
12.8813	12.7374	0.33011	0.99311
12.8818	12.7378	0.330169	0.996859
12.8822	12.7383	0.326984	0.994278
12.8827	12.7388	0.330418	0.995258
12.8832	12.7392	0.330976	0.996626
12.8837	12.7397	0.328986	0.995223
12.8841	12.7402	0.330569	1.00228
12.8846	12.7406	0.330256	1.00471
12.8851	12.7411	0.32974	0.997091
12.8856	12.7416	0.332664	0.999232
12.886	12.7421	0.330138	1.00262
12.8865	12.7425	0.330227	1.00217
12.887	12.743	0.328023	1.0041
12.8874	12.7435	0.329408	1.0007
12.8879	12.7439	0.330139	0.999731
12.8884	12.7444	0.330978	1.00435
12.8889	12.7449	0.330688	1.01219
12.8893	12.7454	0.331792	1.00823
12.8898	12.7458	0.329733	1.00692
12.8903	12.7463	0.333218	1.00993
12.8907	12.7468	0.331802	1.01204
12.8912	12.7473	0.332704	1.01148
12.8917	12.7477	0.33057	1.00895
12.8922	12.7482	0.332586	1.00719
12.8926	12.7487	0.331251	1.00753
12.8931	12.7491	0.331118	1.01008
12.8936	12.7496	0.332187	1.01491
12.8941	12.7501	0.332374	1.00995
12.8945	12.7505	0.330096	1.00739
12.895	12.751	0.333232	1.00918
12.8955	12.7515	0.333055	1.01519
12.8959	12.752	0.332555	1.01317
12.8964	12.7524	0.331039	1.01364
12.8969	12.7529	0.331468	1.01289
12.8974	12.7533	0.333743	1.00847
12.8978	12.7538	0.332328	1.00925
12.8983	12.7543	0.333248	1.01991
12.8988	12.7548	0.332903	1.01615
