# 1304     AichiSR QXAFS
# Start     : 8.9544
# End       : 9.0544
# Dir       : Backward
# Points    : 300
# ScanTime  : 1.01549
# Date      : 13.04.23 22:20
# Ring Cur. : 25.6[mA]
12.7557	12.6117	0.301314	0.229593
12.7562	12.6122	0.299613	0.230135
12.7566	12.6127	0.300485	0.231933
12.7571	12.6131	0.302226	0.233011
12.7576	12.6136	0.300838	0.231159
12.7581	12.614	0.302268	0.232736
12.7585	12.6145	0.3025	0.235071
12.759	12.615	0.300958	0.234921
12.7595	12.6155	0.301636	0.234136
12.7599	12.616	0.303276	0.235065
12.7604	12.6164	0.303405	0.237271
12.7609	12.6169	0.303439	0.236541
12.7614	12.6174	0.303118	0.237647
12.7618	12.6179	0.304389	0.23822
12.7623	12.6183	0.302806	0.233517
12.7628	12.6188	0.30347	0.237124
12.7632	12.6193	0.304566	0.23736
12.7637	12.6197	0.302737	0.236079
12.7642	12.6202	0.301898	0.234882
12.7647	12.6207	0.305042	0.235361
12.7651	12.6212	0.304768	0.237161
12.7656	12.6216	0.301501	0.237143
12.7661	12.6221	0.302004	0.237768
12.7666	12.6226	0.304531	0.238332
12.767	12.623	0.304623	0.238114
12.7675	12.6235	0.303715	0.238194
12.768	12.624	0.3046	0.241265
12.7684	12.6245	0.30361	0.241491
12.7689	12.6249	0.3013	0.240168
12.7694	12.6254	0.305607	0.241559
12.7699	12.6259	0.304928	0.241787
12.7703	12.6264	0.303905	0.242131
12.7708	12.6269	0.301568	0.241732
12.7713	12.6273	0.303321	0.243797
12.7717	12.6278	0.303554	0.24262
12.7722	12.6283	0.304087	0.243617
12.7727	12.6288	0.303345	0.244305
12.7732	12.6292	0.302919	0.243351
12.7736	12.6297	0.30281	0.243528
12.7741	12.6301	0.305635	0.244043
12.7746	12.6306	0.304936	0.244474
12.7751	12.6311	0.302837	0.244392
12.7755	12.6316	0.307048	0.24603
12.776	12.632	0.305083	0.243579
12.7765	12.6325	0.306501	0.242126
12.7769	12.633	0.305832	0.243458
12.7774	12.6334	0.305447	0.24513
12.7779	12.6339	0.303155	0.244164
12.7784	12.6344	0.303836	0.243006
12.7788	12.6348	0.304807	0.243198
12.7793	12.6353	0.304867	0.243979
12.7798	12.6358	0.305806	0.24548
12.7802	12.6363	0.306307	0.246945
12.7807	12.6368	0.304834	0.246276
12.7812	12.6372	0.308405	0.246396
12.7817	12.6377	0.306974	0.247178
12.7821	12.6382	0.30679	0.248466
12.7826	12.6386	0.30518	0.249789
12.7831	12.6391	0.306111	0.249039
12.7836	12.6396	0.306908	0.248309
12.784	12.64	0.304606	0.249105
12.7845	12.6405	0.3062	0.249912
12.785	12.641	0.306204	0.252266
12.7854	12.6415	0.305399	0.249788
12.7859	12.6419	0.30459	0.248733
12.7864	12.6424	0.306431	0.249904
12.7869	12.6428	0.307138	0.251769
12.7873	12.6433	0.305225	0.250053
12.7878	12.6438	0.305336	0.249008
12.7883	12.6442	0.307135	0.24837
12.7887	12.6447	0.306561	0.24825
12.7892	12.6452	0.303652	0.246547
12.7897	12.6457	0.305505	0.246319
12.7902	12.6462	0.304062	0.243867
12.7906	12.6466	0.303332	0.241631
12.7911	12.6471	0.306115	0.24255
12.7916	12.6476	0.306318	0.243172
12.7921	12.6481	0.306526	0.24357
12.7925	12.6486	0.306303	0.237948
12.793	12.649	0.308298	0.238636
12.7935	12.6495	0.308936	0.235423
12.7939	12.65	0.306906	0.234762
12.7944	12.6504	0.30759	0.234395
12.7949	12.6509	0.307455	0.231377
12.7954	12.6514	0.309142	0.22939
12.7958	12.6519	0.308693	0.228705
12.7963	12.6523	0.310125	0.227747
12.7968	12.6528	0.308016	0.226559
12.7972	12.6533	0.30856	0.222326
12.7977	12.6537	0.31081	0.220876
12.7982	12.6542	0.309892	0.220145
12.7987	12.6547	0.30861	0.219231
12.7991	12.6552	0.308486	0.21764
12.7996	12.6556	0.309711	0.215839
12.8001	12.6561	0.310194	0.214469
12.8006	12.6566	0.309215	0.213999
12.801	12.6571	0.309588	0.215515
12.8015	12.6576	0.310263	0.215168
12.802	12.658	0.310076	0.212491
12.8024	12.6585	0.311097	0.215119
12.8029	12.659	0.311494	0.213723
12.8034	12.6594	0.308915	0.215707
12.8039	12.6599	0.309721	0.21536
12.8043	12.6604	0.309239	0.21542
12.8048	12.6608	0.31073	0.217917
12.8053	12.6613	0.310527	0.21934
12.8057	12.6618	0.310789	0.222444
12.8062	12.6623	0.308213	0.222473
12.8067	12.6627	0.308348	0.22132
12.8072	12.6632	0.312705	0.226321
12.8076	12.6636	0.311451	0.228279
12.8081	12.6641	0.311126	0.230471
12.8086	12.6646	0.311079	0.231627
12.8091	12.6651	0.310898	0.232041
12.8095	12.6655	0.312586	0.234801
12.81	12.666	0.311584	0.236735
12.8105	12.6665	0.311434	0.240471
12.8109	12.667	0.30945	0.240106
12.8114	12.6674	0.310268	0.242251
12.8119	12.6679	0.312492	0.244192
12.8124	12.6684	0.311347	0.246275
12.8128	12.6689	0.309108	0.247266
12.8133	12.6693	0.310579	0.25073
12.8138	12.6698	0.308834	0.24974
12.8142	12.6702	0.311303	0.251592
12.8147	12.6707	0.310963	0.255056
12.8152	12.6712	0.312841	0.258568
12.8157	12.6717	0.310481	0.259575
12.8161	12.6721	0.310425	0.259176
12.8166	12.6726	0.314329	0.262644
12.8171	12.6731	0.312906	0.263337
12.8176	12.6735	0.310098	0.264555
12.818	12.674	0.310935	0.265281
12.8185	12.6745	0.311681	0.266088
12.819	12.675	0.311475	0.266438
12.8194	12.6754	0.30984	0.267978
12.8199	12.6759	0.311687	0.269195
12.8204	12.6764	0.310365	0.26904
12.8209	12.6769	0.310196	0.267593
12.8213	12.6774	0.312936	0.26989
12.8218	12.6778	0.312936	0.2713
12.8223	12.6783	0.312773	0.271147
12.8227	12.6788	0.31291	0.2712
12.8232	12.6792	0.311699	0.267806
12.8237	12.6797	0.315272	0.267317
12.8242	12.6802	0.316788	0.270633
12.8246	12.6807	0.31431	0.265858
12.8251	12.6811	0.310339	0.26167
12.8256	12.6816	0.310119	0.257165
12.8261	12.6821	0.313471	0.257506
12.8265	12.6825	0.311363	0.254532
12.827	12.683	0.309758	0.252294
12.8275	12.6835	0.309906	0.249638
12.8279	12.6839	0.311426	0.247688
12.8284	12.6844	0.312628	0.2449
12.8289	12.6849	0.312945	0.242455
12.8294	12.6854	0.312847	0.242059
12.8298	12.6859	0.312104	0.238239
12.8303	12.6863	0.312858	0.234628
12.8308	12.6868	0.314834	0.231194
12.8312	12.6873	0.312813	0.228921
12.8317	12.6878	0.312756	0.225803
12.8322	12.6883	0.31337	0.223002
12.8327	12.6887	0.312677	0.218987
12.8331	12.6892	0.313968	0.216437
12.8336	12.6896	0.314088	0.216748
12.8341	12.6901	0.313139	0.216225
12.8346	12.6906	0.312391	0.216552
12.835	12.6911	0.314201	0.218334
12.8355	12.6915	0.317206	0.222527
12.836	12.692	0.315432	0.227074
12.8364	12.6925	0.315406	0.231614
12.8369	12.6929	0.316962	0.236799
12.8374	12.6934	0.316713	0.239437
12.8379	12.6938	0.31739	0.244341
12.8383	12.6943	0.314856	0.247672
12.8388	12.6948	0.31532	0.25311
12.8393	12.6953	0.315554	0.252587
12.8397	12.6958	0.31547	0.253787
12.8402	12.6962	0.316557	0.25582
12.8407	12.6967	0.315406	0.256364
12.8412	12.6972	0.315127	0.256395
12.8416	12.6977	0.31603	0.255686
12.8421	12.6981	0.315451	0.251663
12.8426	12.6986	0.316742	0.249141
12.8431	12.699	0.316685	0.248617
12.8435	12.6995	0.316702	0.245516
12.844	12.7	0.315439	0.240413
12.8445	12.7004	0.315959	0.235367
12.8449	12.7009	0.319314	0.232897
12.8454	12.7014	0.318185	0.230463
12.8459	12.7019	0.31593	0.227788
12.8464	12.7023	0.314984	0.225148
12.8468	12.7028	0.315236	0.223295
12.8473	12.7033	0.317746	0.223104
12.8478	12.7037	0.315383	0.22568
12.8482	12.7042	0.318451	0.22958
12.8487	12.7047	0.318216	0.232957
12.8492	12.7052	0.317796	0.23561
12.8497	12.7057	0.321794	0.243769
12.8501	12.7062	0.320687	0.25419
12.8506	12.7066	0.317322	0.262404
12.8511	12.7071	0.318563	0.272631
12.8516	12.7076	0.320952	0.284641
12.852	12.7081	0.321013	0.294491
12.8525	12.7085	0.321194	0.309064
12.853	12.709	0.320182	0.3235
12.8534	12.7095	0.318998	0.335748
12.8539	12.7099	0.318754	0.346777
12.8544	12.7104	0.320506	0.362257
12.8549	12.7109	0.320607	0.376425
12.8553	12.7114	0.319771	0.388286
12.8558	12.7118	0.32018	0.401693
12.8563	12.7123	0.322549	0.411686
12.8567	12.7128	0.322554	0.421768
12.8572	12.7132	0.321017	0.432172
12.8577	12.7137	0.320666	0.440971
12.8582	12.7142	0.321721	0.447717
12.8586	12.7146	0.320937	0.454392
12.8591	12.7151	0.322399	0.465449
12.8596	12.7156	0.32176	0.473419
12.8601	12.7161	0.319707	0.481057
12.8605	12.7166	0.320091	0.49019
12.861	12.717	0.320224	0.495377
12.8615	12.7175	0.321628	0.50499
12.8619	12.718	0.32135	0.511229
12.8624	12.7185	0.32152	0.511779
12.8629	12.7189	0.319882	0.508494
12.8634	12.7194	0.321028	0.507124
12.8638	12.7198	0.323808	0.505291
12.8643	12.7203	0.322942	0.502994
12.8648	12.7208	0.320912	0.499094
12.8652	12.7213	0.319716	0.498303
12.8657	12.7217	0.321356	0.507054
12.8662	12.7222	0.321897	0.517769
12.8667	12.7227	0.321257	0.539405
12.8671	12.7231	0.319534	0.569313
12.8676	12.7236	0.318582	0.605546
12.8681	12.724	0.318099	0.651296
12.8686	12.7245	0.319829	0.705386
12.869	12.725	0.319457	0.756419
12.8695	12.7255	0.314575	0.798016
12.87	12.726	0.318726	0.834643
12.8704	12.7264	0.322663	0.867368
12.8709	12.7269	0.321803	0.886316
12.8714	12.7274	0.322705	0.907372
12.8719	12.7279	0.323242	0.921104
12.8723	12.7283	0.320144	0.920699
12.8728	12.7288	0.32111	0.926576
12.8733	12.7293	0.324735	0.939903
12.8737	12.7297	0.321703	0.944382
12.8742	12.7302	0.319848	0.941419
12.8747	12.7307	0.321684	0.949193
12.8752	12.7312	0.322743	0.953831
12.8756	12.7316	0.322505	0.950358
12.8761	12.7321	0.322703	0.961833
12.8766	12.7326	0.323567	0.968434
12.8771	12.733	0.321652	0.960779
12.8775	12.7335	0.323586	0.964458
12.878	12.734	0.326263	0.975592
12.8785	12.7345	0.326633	0.976269
12.8789	12.7349	0.323011	0.973161
12.8794	12.7354	0.323127	0.971627
12.8799	12.7359	0.324633	0.974559
12.8804	12.7364	0.325535	0.974781
12.8808	12.7369	0.324723	0.979237
12.8813	12.7373	0.322269	0.978947
12.8818	12.7378	0.320999	0.971947
12.8822	12.7383	0.324534	0.977443
12.8827	12.7388	0.325975	0.983933
12.8832	12.7392	0.325721	0.986791
12.8837	12.7397	0.324351	0.987176
12.8841	12.7402	0.324835	0.986006
12.8846	12.7406	0.325965	0.987609
12.8851	12.7411	0.325899	0.988799
12.8856	12.7416	0.327736	0.995584
12.886	12.7421	0.32529	0.99187
12.8865	12.7425	0.322678	0.983415
12.887	12.743	0.323562	0.981578
12.8874	12.7435	0.326226	0.988222
12.8879	12.7439	0.327465	0.992892
12.8884	12.7444	0.325045	0.989508
12.8889	12.7449	0.324961	0.988314
12.8893	12.7454	0.326261	0.98909
12.8898	12.7458	0.327625	0.993152
12.8903	12.7463	0.32977	1.00091
12.8907	12.7468	0.326581	0.999739
12.8912	12.7473	0.326875	0.995472
12.8917	12.7477	0.328104	0.997281
12.8922	12.7482	0.32804	0.99721
12.8926	12.7487	0.329622	1.00098
12.8931	12.7491	0.328669	1.00109
12.8936	12.7496	0.32686	0.999627
12.8941	12.7501	0.326637	0.992788
12.8945	12.7505	0.325679	0.992186
12.895	12.751	0.327827	0.998129
12.8955	12.7515	0.328467	1.00314
12.8959	12.752	0.325812	0.993786
12.8964	12.7524	0.327672	0.991676
12.8969	12.7529	0.328668	0.999152
12.8974	12.7533	0.328556	1.00416
12.8978	12.7538	0.327797	1.00194
12.8983	12.7543	0.327735	1.00155
12.8988	12.7548	0.329949	1.00178
