# 1304     AichiSR QXAFS
# Start     : 8.9544
# End       : 9.0544
# Dir       : Backward
# Points    : 300
# ScanTime  : 1.01549
# Date      : 13.04.23 22:31
# Ring Cur. : 25.6[mA]
12.7557	12.6118	0.305082	0.233472
12.7562	12.6123	0.30394	0.23289
12.7566	12.6127	0.305901	0.234644
12.7571	12.6132	0.307982	0.236613
12.7576	12.6137	0.307756	0.237911
12.7581	12.6141	0.304568	0.238286
12.7585	12.6146	0.308115	0.239258
12.759	12.6151	0.307802	0.2379
12.7595	12.6156	0.310076	0.241189
12.7599	12.6161	0.310886	0.243203
12.7604	12.6165	0.308613	0.24055
12.7609	12.617	0.307255	0.239753
12.7614	12.6175	0.311304	0.24029
12.7618	12.618	0.311133	0.241142
12.7623	12.6184	0.30781	0.239444
12.7628	12.6189	0.308725	0.241795
12.7632	12.6194	0.308956	0.239696
12.7637	12.6198	0.310385	0.239638
12.7642	12.6203	0.309494	0.240632
12.7647	12.6208	0.310749	0.244322
12.7651	12.6213	0.310357	0.244178
12.7656	12.6217	0.307758	0.239707
12.7661	12.6222	0.30917	0.241584
12.7666	12.6227	0.310649	0.243964
12.767	12.6231	0.311761	0.245853
12.7675	12.6236	0.309578	0.244791
12.768	12.6241	0.309717	0.245139
12.7684	12.6246	0.311024	0.242598
12.7689	12.625	0.309802	0.245545
12.7694	12.6255	0.311898	0.249105
12.7699	12.626	0.309417	0.247057
12.7703	12.6265	0.309758	0.246315
12.7708	12.627	0.311218	0.247088
12.7713	12.6274	0.311561	0.248824
12.7717	12.6279	0.310694	0.249431
12.7722	12.6284	0.310179	0.248883
12.7727	12.6289	0.311635	0.249924
12.7732	12.6293	0.310903	0.248263
12.7736	12.6298	0.310691	0.249225
12.7741	12.6302	0.313085	0.250141
12.7746	12.6307	0.312725	0.25184
12.7751	12.6312	0.310902	0.247884
12.7755	12.6317	0.313534	0.24969
12.776	12.6321	0.313662	0.250182
12.7765	12.6326	0.31061	0.249623
12.7769	12.6331	0.312359	0.249539
12.7774	12.6335	0.312792	0.24752
12.7779	12.634	0.311598	0.248688
12.7784	12.6345	0.312028	0.249293
12.7788	12.6349	0.313515	0.252742
12.7793	12.6354	0.312375	0.251385
12.7798	12.6359	0.311226	0.250723
12.7802	12.6364	0.314636	0.251541
12.7807	12.6369	0.312878	0.25168
12.7812	12.6373	0.311997	0.25222
12.7817	12.6378	0.313761	0.253787
12.7821	12.6383	0.31442	0.253224
12.7826	12.6387	0.314662	0.253658
12.7831	12.6392	0.31321	0.254086
12.7836	12.6397	0.315433	0.257591
12.784	12.6401	0.313841	0.256313
12.7845	12.6406	0.312022	0.254072
12.785	12.6411	0.314708	0.255527
12.7854	12.6416	0.31561	0.258512
12.7859	12.642	0.314587	0.257886
12.7864	12.6425	0.312503	0.257014
12.7869	12.6429	0.31396	0.255716
12.7873	12.6434	0.314641	0.253837
12.7878	12.6439	0.313583	0.254974
12.7883	12.6443	0.31292	0.255848
12.7887	12.6448	0.313411	0.254846
12.7892	12.6453	0.31172	0.249829
12.7897	12.6458	0.3131	0.252819
12.7902	12.6463	0.314107	0.251192
12.7906	12.6467	0.311531	0.249234
12.7911	12.6472	0.313942	0.24959
12.7916	12.6477	0.313367	0.247981
12.7921	12.6482	0.315923	0.247159
12.7925	12.6487	0.313219	0.24435
12.793	12.6491	0.316686	0.24655
12.7935	12.6496	0.315685	0.244368
12.7939	12.6501	0.314994	0.240226
12.7944	12.6505	0.318563	0.239874
12.7949	12.651	0.319096	0.239077
12.7954	12.6515	0.315715	0.234876
12.7958	12.652	0.316231	0.233586
12.7963	12.6524	0.316943	0.231228
12.7968	12.6529	0.318762	0.229349
12.7972	12.6534	0.318512	0.228241
12.7977	12.6538	0.317082	0.227901
12.7982	12.6543	0.316864	0.225272
12.7987	12.6548	0.315189	0.222402
12.7991	12.6553	0.318674	0.221965
12.7996	12.6557	0.318245	0.222971
12.8001	12.6562	0.316227	0.221874
12.8006	12.6567	0.316408	0.220226
12.801	12.6572	0.316792	0.217866
12.8015	12.6577	0.319173	0.219348
12.802	12.6581	0.319894	0.220074
12.8024	12.6586	0.317127	0.220118
12.8029	12.6591	0.315413	0.218111
12.8034	12.6595	0.317601	0.219772
12.8039	12.66	0.320668	0.220931
12.8043	12.6605	0.320657	0.224361
12.8048	12.6609	0.317317	0.225748
12.8053	12.6614	0.319474	0.22623
12.8057	12.6619	0.318889	0.226882
12.8062	12.6623	0.319303	0.228078
12.8067	12.6628	0.31938	0.231765
12.8072	12.6633	0.318671	0.234267
12.8076	12.6637	0.31869	0.234326
12.8081	12.6642	0.318489	0.233898
12.8086	12.6647	0.320273	0.237913
12.8091	12.6652	0.32162	0.242388
12.8095	12.6656	0.318169	0.242185
12.81	12.6661	0.319836	0.242817
12.8105	12.6666	0.320828	0.244085
12.8109	12.6671	0.321424	0.247104
12.8114	12.6675	0.321272	0.248823
12.8119	12.668	0.321887	0.254594
12.8124	12.6685	0.319346	0.252994
12.8128	12.6689	0.317465	0.253647
12.8133	12.6694	0.323634	0.260262
12.8138	12.6699	0.320725	0.261607
12.8142	12.6703	0.319515	0.260906
12.8147	12.6708	0.320487	0.263866
12.8152	12.6713	0.321598	0.265191
12.8157	12.6718	0.318826	0.265979
12.8161	12.6722	0.321322	0.270163
12.8166	12.6727	0.321568	0.272139
12.8171	12.6732	0.31878	0.27027
12.8176	12.6736	0.320813	0.269344
12.818	12.6741	0.322005	0.272457
12.8185	12.6746	0.32222	0.276949
12.819	12.6751	0.320125	0.275827
12.8194	12.6755	0.319523	0.275438
12.8199	12.676	0.320104	0.275404
12.8204	12.6765	0.321964	0.277131
12.8209	12.677	0.321515	0.279425
12.8213	12.6775	0.319867	0.278739
12.8218	12.6779	0.321435	0.276884
12.8223	12.6784	0.319992	0.275496
12.8227	12.6789	0.321194	0.276167
12.8232	12.6793	0.322877	0.27794
12.8237	12.6798	0.323937	0.276857
12.8242	12.6803	0.321298	0.272119
12.8246	12.6808	0.321455	0.269976
12.8251	12.6812	0.322149	0.267982
12.8256	12.6817	0.32085	0.266119
12.8261	12.6822	0.321128	0.265483
12.8265	12.6826	0.320632	0.260491
12.827	12.6831	0.319532	0.256605
12.8275	12.6836	0.320027	0.255704
12.8279	12.684	0.321333	0.255369
12.8284	12.6845	0.319688	0.251428
12.8289	12.685	0.318902	0.248137
12.8294	12.6855	0.321552	0.245329
12.8298	12.686	0.321981	0.244194
12.8303	12.6864	0.321637	0.239311
12.8308	12.6869	0.323253	0.239696
12.8312	12.6874	0.323166	0.234262
12.8317	12.6879	0.319854	0.228462
12.8322	12.6883	0.322138	0.226381
12.8327	12.6888	0.323307	0.22628
12.8331	12.6893	0.322356	0.224389
12.8336	12.6897	0.322401	0.222284
12.8341	12.6902	0.323523	0.221237
12.8346	12.6907	0.322352	0.222767
12.835	12.6912	0.32237	0.226804
12.8355	12.6916	0.324475	0.232274
12.836	12.6921	0.323005	0.233255
12.8364	12.6926	0.321905	0.235174
12.8369	12.693	0.322834	0.241702
12.8374	12.6935	0.322121	0.247637
12.8379	12.6939	0.320648	0.252263
12.8383	12.6944	0.320744	0.254887
12.8388	12.6949	0.321989	0.256238
12.8393	12.6954	0.321548	0.259534
12.8397	12.6959	0.323091	0.262766
12.8402	12.6963	0.322237	0.264345
12.8407	12.6968	0.321824	0.260585
12.8412	12.6973	0.320938	0.258076
12.8416	12.6978	0.322302	0.258724
12.8421	12.6982	0.322723	0.257513
12.8426	12.6987	0.319805	0.25305
12.8431	12.6991	0.319405	0.248842
12.8435	12.6996	0.322097	0.246463
12.844	12.7001	0.321213	0.242304
12.8445	12.7005	0.32	0.239311
12.8449	12.701	0.320233	0.237588
12.8454	12.7015	0.321052	0.232048
12.8459	12.702	0.320482	0.227804
12.8464	12.7024	0.320991	0.225955
12.8468	12.7029	0.321267	0.226577
12.8473	12.7034	0.31915	0.227935
12.8478	12.7038	0.320316	0.227249
12.8482	12.7043	0.322824	0.231191
12.8487	12.7048	0.321183	0.234413
12.8492	12.7053	0.320907	0.241883
12.8497	12.7058	0.322349	0.251044
12.8501	12.7063	0.320688	0.257541
12.8506	12.7067	0.321386	0.26616
12.8511	12.7072	0.322586	0.278802
12.8516	12.7077	0.32311	0.291048
12.852	12.7082	0.321631	0.303221
12.8525	12.7086	0.320453	0.315519
12.853	12.7091	0.324474	0.33001
12.8534	12.7096	0.322459	0.340716
12.8539	12.71	0.322572	0.356928
12.8544	12.7105	0.322057	0.370738
12.8549	12.711	0.322123	0.381789
12.8553	12.7115	0.323649	0.392593
12.8558	12.7119	0.327071	0.410343
12.8563	12.7124	0.325276	0.421524
12.8567	12.7129	0.321389	0.429193
12.8572	12.7133	0.321632	0.433865
12.8577	12.7138	0.322959	0.44235
12.8582	12.7143	0.32208	0.451787
12.8586	12.7147	0.322345	0.463421
12.8591	12.7152	0.322151	0.471857
12.8596	12.7157	0.321965	0.477527
12.8601	12.7162	0.32182	0.485488
12.8605	12.7167	0.322054	0.497233
12.861	12.7171	0.323502	0.505475
12.8615	12.7176	0.32255	0.509909
12.8619	12.7181	0.321247	0.51243
12.8624	12.7186	0.323024	0.512074
12.8629	12.719	0.321208	0.50889
12.8634	12.7195	0.322105	0.508102
12.8638	12.7199	0.320945	0.503445
12.8643	12.7204	0.321365	0.497155
12.8648	12.7209	0.321081	0.495152
12.8652	12.7214	0.321215	0.500298
12.8657	12.7218	0.322064	0.510292
12.8662	12.7223	0.320794	0.524059
12.8667	12.7227	0.320223	0.545246
12.8671	12.7232	0.322273	0.581451
12.8676	12.7237	0.321244	0.625201
12.8681	12.7242	0.318299	0.674205
12.8686	12.7246	0.319188	0.734919
12.869	12.7251	0.318434	0.776367
12.8695	12.7256	0.318505	0.811991
12.87	12.7261	0.319233	0.850869
12.8704	12.7265	0.321416	0.884343
12.8709	12.727	0.321246	0.898958
12.8714	12.7275	0.321886	0.906827
12.8719	12.728	0.325428	0.927235
12.8723	12.7284	0.322209	0.927896
12.8728	12.7289	0.324222	0.943149
12.8733	12.7294	0.324819	0.95072
12.8737	12.7298	0.322557	0.949058
12.8742	12.7303	0.323205	0.94773
12.8747	12.7308	0.325002	0.956851
12.8752	12.7313	0.32659	0.965716
12.8756	12.7317	0.32163	0.961787
12.8761	12.7322	0.322311	0.962297
12.8766	12.7327	0.326495	0.972718
12.8771	12.7331	0.323089	0.965908
12.8775	12.7336	0.323699	0.972707
12.878	12.7341	0.326488	0.980505
12.8785	12.7346	0.325013	0.977675
12.8789	12.735	0.32518	0.973307
12.8794	12.7355	0.325507	0.980922
12.8799	12.736	0.327692	0.989109
12.8804	12.7365	0.326083	0.985818
12.8808	12.737	0.325816	0.986843
12.8813	12.7375	0.328132	0.984213
12.8818	12.7379	0.326172	0.987199
12.8822	12.7384	0.327292	0.991673
12.8827	12.7389	0.328164	0.994867
12.8832	12.7393	0.326697	0.989802
12.8837	12.7398	0.328036	0.989225
12.8841	12.7403	0.327232	0.993609
12.8846	12.7407	0.327073	0.995404
12.8851	12.7412	0.327973	0.997069
12.8856	12.7417	0.328036	0.997226
12.886	12.7422	0.328553	0.996076
12.8865	12.7426	0.328789	0.997039
12.887	12.7431	0.329205	1.00373
12.8874	12.7436	0.329942	1.00502
12.8879	12.744	0.330246	0.999713
12.8884	12.7445	0.330512	1.00161
12.8889	12.745	0.330465	1.00235
12.8893	12.7455	0.328527	1.00408
12.8898	12.7459	0.330352	1.00614
12.8903	12.7464	0.330493	1.00811
12.8907	12.7469	0.331478	1.00433
12.8912	12.7474	0.331393	1.00588
12.8917	12.7478	0.330445	1.00864
12.8922	12.7483	0.332382	1.01342
12.8926	12.7488	0.332224	1.0132
12.8931	12.7492	0.331666	1.00967
12.8936	12.7497	0.332175	1.01205
12.8941	12.7502	0.332601	1.01286
12.8945	12.7506	0.332385	1.01301
12.895	12.7511	0.331728	1.01149
12.8955	12.7516	0.333315	1.01123
12.8959	12.752	0.331022	1.01016
12.8964	12.7525	0.331209	1.01072
12.8969	12.753	0.331652	1.01597
12.8974	12.7534	0.332498	1.01292
12.8978	12.7539	0.331925	1.00976
12.8983	12.7544	0.332119	1.01421
12.8988	12.7548	0.3335	1.02342
