# 1304     AichiSR QXAFS
# Start     : 8.9544
# End       : 9.0544
# Dir       : Backward
# Points    : 300
# ScanTime  : 1.01549
# Date      : 13.04.23 22:25
# Ring Cur. : 25.4[mA]
12.7557	12.6118	0.296167	0.229279
12.7562	12.6122	0.294805	0.226569
12.7566	12.6127	0.296387	0.227581
12.7571	12.6131	0.29896	0.229845
12.7576	12.6136	0.29721	0.230605
12.7581	12.6141	0.297007	0.231604
12.7585	12.6146	0.299415	0.232951
12.759	12.615	0.298076	0.231003
12.7595	12.6155	0.300369	0.232016
12.7599	12.616	0.301014	0.234745
12.7604	12.6165	0.299565	0.233675
12.7609	12.6169	0.300034	0.234402
12.7614	12.6174	0.300747	0.233581
12.7618	12.6179	0.302025	0.23493
12.7623	12.6184	0.299438	0.233868
12.7628	12.6188	0.301648	0.236426
12.7632	12.6193	0.302001	0.234905
12.7637	12.6198	0.300659	0.23247
12.7642	12.6202	0.300224	0.233442
12.7647	12.6207	0.301759	0.236206
12.7651	12.6212	0.300647	0.236738
12.7656	12.6217	0.300637	0.234428
12.7661	12.6221	0.302803	0.236319
12.7666	12.6226	0.303478	0.237144
12.767	12.6231	0.302887	0.237547
12.7675	12.6235	0.304084	0.23912
12.768	12.624	0.304568	0.239499
12.7684	12.6245	0.304095	0.237727
12.7689	12.625	0.302328	0.239622
12.7694	12.6255	0.303372	0.242832
12.7699	12.6259	0.301867	0.241651
12.7703	12.6264	0.301569	0.240813
12.7708	12.6269	0.302383	0.239852
12.7713	12.6274	0.302043	0.242377
12.7717	12.6278	0.303622	0.243348
12.7722	12.6283	0.302086	0.243896
12.7727	12.6288	0.304041	0.243162
12.7732	12.6292	0.304079	0.243519
12.7736	12.6297	0.305426	0.243899
12.7741	12.6302	0.306926	0.247162
12.7746	12.6307	0.306744	0.244979
12.7751	12.6311	0.305332	0.245295
12.7755	12.6316	0.307171	0.242904
12.776	12.6321	0.305733	0.244281
12.7765	12.6325	0.305873	0.244878
12.7769	12.633	0.306014	0.244823
12.7774	12.6335	0.304803	0.243353
12.7779	12.6339	0.306245	0.242075
12.7784	12.6344	0.304161	0.243746
12.7788	12.6349	0.306859	0.245811
12.7793	12.6354	0.306985	0.246629
12.7798	12.6358	0.3077	0.24582
12.7802	12.6363	0.308156	0.246553
12.7807	12.6368	0.308745	0.248447
12.7812	12.6373	0.307731	0.248394
12.7817	12.6377	0.309348	0.251051
12.7821	12.6382	0.309401	0.249765
12.7826	12.6387	0.309039	0.249397
12.7831	12.6391	0.307668	0.24902
12.7836	12.6396	0.310315	0.25288
12.784	12.6401	0.308333	0.252508
12.7845	12.6405	0.30699	0.250186
12.785	12.641	0.309327	0.250927
12.7854	12.6415	0.308416	0.251321
12.7859	12.642	0.309218	0.251974
12.7864	12.6424	0.308254	0.253753
12.7869	12.6429	0.309162	0.253593
12.7873	12.6433	0.309541	0.252142
12.7878	12.6438	0.308188	0.251175
12.7883	12.6443	0.310214	0.252475
12.7887	12.6448	0.308983	0.251948
12.7892	12.6452	0.305619	0.247655
12.7897	12.6457	0.309565	0.247927
12.7902	12.6462	0.308917	0.246752
12.7906	12.6467	0.306934	0.245954
12.7911	12.6472	0.307683	0.245953
12.7916	12.6476	0.309801	0.246707
12.7921	12.6481	0.308666	0.241034
12.7925	12.6486	0.308563	0.240528
12.793	12.6491	0.312086	0.242836
12.7935	12.6495	0.311686	0.240968
12.7939	12.65	0.31111	0.237375
12.7944	12.6505	0.312354	0.236073
12.7949	12.6509	0.314464	0.235941
12.7954	12.6514	0.310887	0.234196
12.7958	12.6519	0.313211	0.232995
12.7963	12.6524	0.313752	0.230422
12.7968	12.6528	0.313511	0.226875
12.7972	12.6533	0.313506	0.225747
12.7977	12.6538	0.31428	0.225022
12.7982	12.6542	0.313434	0.223375
12.7987	12.6547	0.311831	0.21979
12.7991	12.6552	0.314895	0.220475
12.7996	12.6557	0.31368	0.21975
12.8001	12.6562	0.312909	0.218574
12.8006	12.6566	0.315559	0.21842
12.801	12.6571	0.31567	0.217676
12.8015	12.6576	0.317053	0.217315
12.802	12.6581	0.314815	0.216812
12.8024	12.6585	0.315402	0.218937
12.8029	12.659	0.315369	0.2186
12.8034	12.6595	0.313825	0.218158
12.8039	12.6599	0.316518	0.218817
12.8043	12.6604	0.313789	0.219274
12.8048	12.6609	0.314135	0.222303
12.8053	12.6613	0.31498	0.225471
12.8057	12.6618	0.314616	0.224475
12.8062	12.6623	0.315528	0.225056
12.8067	12.6627	0.315276	0.228392
12.8072	12.6632	0.315451	0.23165
12.8076	12.6637	0.317841	0.232584
12.8081	12.6641	0.317227	0.234355
12.8086	12.6646	0.317307	0.23558
12.8091	12.6651	0.316772	0.237261
12.8095	12.6656	0.31578	0.238938
12.81	12.6661	0.318606	0.24244
12.8105	12.6665	0.318172	0.243608
12.8109	12.667	0.318205	0.243258
12.8114	12.6675	0.315522	0.245694
12.8119	12.668	0.317679	0.250002
12.8124	12.6684	0.316257	0.251703
12.8128	12.6689	0.31577	0.251142
12.8133	12.6693	0.319103	0.254706
12.8138	12.6698	0.317507	0.256986
12.8142	12.6703	0.316491	0.258929
12.8147	12.6707	0.316834	0.261641
12.8152	12.6712	0.318474	0.263532
12.8157	12.6717	0.319387	0.264208
12.8161	12.6722	0.317444	0.265503
12.8166	12.6726	0.317341	0.268065
12.8171	12.6731	0.317077	0.26838
12.8176	12.6736	0.316903	0.2682
12.818	12.674	0.319367	0.269635
12.8185	12.6745	0.31767	0.270407
12.819	12.675	0.315517	0.271683
12.8194	12.6755	0.316724	0.273788
12.8199	12.676	0.31945	0.274032
12.8204	12.6764	0.319955	0.273615
12.8209	12.6769	0.317548	0.274748
12.8213	12.6774	0.31926	0.277086
12.8218	12.6779	0.320367	0.276031
12.8223	12.6784	0.317657	0.274461
12.8227	12.6788	0.320373	0.275021
12.8232	12.6793	0.31851	0.274536
12.8237	12.6797	0.318143	0.272827
12.8242	12.6802	0.318621	0.270676
12.8246	12.6807	0.319061	0.269216
12.8251	12.6812	0.320808	0.266116
12.8256	12.6817	0.317308	0.26399
12.8261	12.6821	0.318746	0.262379
12.8265	12.6826	0.31899	0.259664
12.827	12.683	0.317501	0.255515
12.8275	12.6835	0.318336	0.254588
12.8279	12.684	0.318167	0.252902
12.8284	12.6845	0.316622	0.250248
12.8289	12.6849	0.316881	0.248117
12.8294	12.6854	0.31775	0.243907
12.8298	12.6859	0.320889	0.242049
12.8303	12.6864	0.319004	0.238785
12.8308	12.6869	0.318239	0.23552
12.8312	12.6873	0.318269	0.232467
12.8317	12.6878	0.318651	0.227795
12.8322	12.6883	0.322815	0.225537
12.8327	12.6888	0.32003	0.224515
12.8331	12.6892	0.319269	0.222558
12.8336	12.6897	0.319452	0.220668
12.8341	12.6901	0.3216	0.220412
12.8346	12.6906	0.320816	0.221807
12.835	12.6911	0.319314	0.223621
12.8355	12.6916	0.31967	0.227132
12.836	12.692	0.320032	0.23017
12.8364	12.6925	0.321092	0.234735
12.8369	12.6929	0.322111	0.240163
12.8374	12.6934	0.320829	0.244673
12.8379	12.6939	0.318222	0.247711
12.8383	12.6944	0.319212	0.251655
12.8388	12.6948	0.320368	0.255218
12.8393	12.6953	0.320287	0.258009
12.8397	12.6958	0.319673	0.259493
12.8402	12.6963	0.319827	0.260731
12.8407	12.6967	0.319275	0.259427
12.8412	12.6972	0.318802	0.257899
12.8416	12.6977	0.322789	0.257308
12.8421	12.6982	0.320437	0.256398
12.8426	12.6986	0.316655	0.251726
12.8431	12.6991	0.318852	0.2497
12.8435	12.6995	0.320711	0.24471
12.844	12.7	0.320034	0.241822
12.8445	12.7005	0.318492	0.238207
12.8449	12.701	0.317812	0.236334
12.8454	12.7014	0.320412	0.231858
12.8459	12.7019	0.318086	0.227501
12.8464	12.7024	0.321713	0.226454
12.8468	12.7028	0.321236	0.225961
12.8473	12.7033	0.317263	0.224452
12.8478	12.7038	0.318495	0.225499
12.8482	12.7043	0.321395	0.22844
12.8487	12.7047	0.321122	0.233956
12.8492	12.7052	0.318959	0.24018
12.8497	12.7057	0.319641	0.248303
12.8501	12.7062	0.321021	0.255406
12.8506	12.7067	0.321468	0.264488
12.8511	12.7071	0.323391	0.276028
12.8516	12.7076	0.322733	0.288652
12.852	12.7081	0.319729	0.298438
12.8525	12.7086	0.32097	0.312407
12.853	12.709	0.323525	0.325819
12.8534	12.7095	0.32256	0.338385
12.8539	12.71	0.321909	0.352813
12.8544	12.7104	0.320715	0.366515
12.8549	12.7109	0.320284	0.376427
12.8553	12.7114	0.320823	0.389658
12.8558	12.7119	0.324301	0.402015
12.8563	12.7123	0.322956	0.414045
12.8567	12.7128	0.321332	0.422724
12.8572	12.7133	0.320802	0.431284
12.8577	12.7137	0.322329	0.441516
12.8582	12.7142	0.322729	0.451168
12.8586	12.7147	0.322226	0.459332
12.8591	12.7152	0.319231	0.466829
12.8596	12.7156	0.319706	0.471603
12.8601	12.7161	0.321953	0.482671
12.8605	12.7166	0.321835	0.493241
12.861	12.7171	0.321424	0.501251
12.8615	12.7175	0.319623	0.505714
12.8619	12.718	0.320751	0.507901
12.8624	12.7185	0.32103	0.510631
12.8629	12.719	0.321218	0.506333
12.8634	12.7194	0.321405	0.505751
12.8638	12.7199	0.319284	0.503141
12.8643	12.7203	0.320565	0.495375
12.8648	12.7208	0.321523	0.496191
12.8652	12.7213	0.321731	0.498933
12.8657	12.7218	0.321178	0.507884
12.8662	12.7222	0.317956	0.516873
12.8667	12.7227	0.31761	0.535077
12.8671	12.7231	0.320616	0.572114
12.8676	12.7236	0.318302	0.614141
12.8681	12.7241	0.316575	0.662665
12.8686	12.7246	0.314078	0.71182
12.869	12.725	0.314596	0.755477
12.8695	12.7255	0.316335	0.799772
12.87	12.726	0.318455	0.841451
12.8704	12.7265	0.318794	0.866222
12.8709	12.7269	0.317441	0.88511
12.8714	12.7274	0.318244	0.897303
12.8719	12.7279	0.321048	0.913993
12.8723	12.7284	0.319522	0.919476
12.8728	12.7288	0.31804	0.924992
12.8733	12.7293	0.319215	0.932339
12.8737	12.7298	0.317719	0.930483
12.8742	12.7302	0.318638	0.93231
12.8747	12.7307	0.320107	0.94231
12.8752	12.7312	0.319904	0.950782
12.8756	12.7317	0.317571	0.944848
12.8761	12.7321	0.319558	0.947569
12.8766	12.7326	0.322383	0.955855
12.8771	12.7331	0.321065	0.958453
12.8775	12.7335	0.320357	0.956123
12.878	12.734	0.321065	0.962771
12.8785	12.7345	0.321475	0.958522
12.8789	12.735	0.319658	0.954912
12.8794	12.7355	0.32026	0.96262
12.8799	12.736	0.320477	0.965373
12.8804	12.7364	0.318072	0.965091
12.8808	12.7369	0.318847	0.96341
12.8813	12.7374	0.321928	0.966618
12.8818	12.7379	0.320325	0.966573
12.8822	12.7383	0.320739	0.969155
12.8827	12.7388	0.321015	0.974457
12.8832	12.7393	0.320468	0.967356
12.8837	12.7397	0.320899	0.969837
12.8841	12.7402	0.32203	0.974658
12.8846	12.7407	0.321229	0.975501
12.8851	12.7412	0.320949	0.974902
12.8856	12.7416	0.320268	0.971696
12.886	12.7421	0.321414	0.972056
12.8865	12.7426	0.322364	0.978072
12.887	12.743	0.321796	0.976862
12.8874	12.7435	0.321198	0.976521
12.8879	12.744	0.320436	0.968704
12.8884	12.7444	0.321494	0.975832
12.8889	12.7449	0.327767	0.993121
12.8893	12.7454	0.322958	0.98527
12.8898	12.7459	0.321367	0.978649
12.8903	12.7464	0.322868	0.978916
12.8907	12.7468	0.32382	0.982443
12.8912	12.7473	0.323956	0.984805
12.8917	12.7478	0.321225	0.983527
12.8922	12.7482	0.323589	0.98469
12.8926	12.7487	0.322908	0.980917
12.8931	12.7492	0.323888	0.980017
12.8936	12.7496	0.322129	0.985412
12.8941	12.7501	0.322544	0.985322
12.8945	12.7506	0.321527	0.98126
12.895	12.751	0.320842	0.97939
12.8955	12.7515	0.324338	0.986404
12.8959	12.752	0.324324	0.984709
12.8964	12.7524	0.322508	0.983067
12.8969	12.7529	0.323441	0.988369
12.8974	12.7534	0.32102	0.983385
12.8978	12.7538	0.324433	0.983494
12.8983	12.7543	0.324375	0.989096
12.8988	12.7548	0.324562	0.991996
