# 1304     AichiSR QXAFS
# Start     : 8.9544
# End       : 9.0544
# Dir       : Forward
# Points    : 300
# ScanTime  : 1.01549
# Date      : 13.04.23 22:28
# Ring Cur. : 25.5[mA]
12.7557	12.7558	0.39961	1.2207
12.7562	12.7553	0.398872	1.21714
12.7566	12.7548	0.401099	1.21783
12.7571	12.7543	0.400956	1.21921
12.7576	12.7538	0.40061	1.22194
12.7581	12.7534	0.399984	1.21775
12.7585	12.7529	0.398571	1.21677
12.759	12.7525	0.400839	1.21832
12.7595	12.752	0.400091	1.22074
12.7599	12.7515	0.399803	1.21793
12.7604	12.7511	0.400406	1.22039
12.7609	12.7506	0.399131	1.21694
12.7614	12.7501	0.400045	1.21506
12.7618	12.7496	0.399286	1.21727
12.7623	12.7492	0.399721	1.21429
12.7628	12.7487	0.397627	1.21245
12.7632	12.7483	0.398945	1.21156
12.7637	12.7478	0.401431	1.21382
12.7642	12.7473	0.398605	1.21289
12.7647	12.7468	0.398068	1.21642
12.7651	12.7464	0.398154	1.2145
12.7656	12.7459	0.396989	1.212
12.7661	12.7454	0.400451	1.21277
12.7666	12.7449	0.398957	1.21134
12.767	12.7444	0.398707	1.21328
12.7675	12.744	0.397562	1.21001
12.768	12.7435	0.398752	1.20697
12.7684	12.743	0.399554	1.20864
12.7689	12.7426	0.396699	1.20908
12.7694	12.7421	0.398401	1.21031
12.7699	12.7416	0.39911	1.20938
12.7703	12.7412	0.397027	1.20292
12.7708	12.7407	0.398594	1.20417
12.7713	12.7402	0.398634	1.20885
12.7717	12.7397	0.39725	1.20748
12.7722	12.7393	0.397692	1.20392
12.7727	12.7388	0.396667	1.20195
12.7732	12.7383	0.399684	1.2007
12.7736	12.7379	0.397579	1.20195
12.7741	12.7374	0.399503	1.20078
12.7746	12.7369	0.398586	1.20189
12.7751	12.7364	0.395917	1.19586
12.7755	12.736	0.397216	1.19357
12.776	12.7355	0.396181	1.19506
12.7765	12.735	0.396224	1.19423
12.7769	12.7345	0.396324	1.19014
12.7774	12.734	0.394291	1.18757
12.7779	12.7336	0.396394	1.18616
12.7784	12.7331	0.394943	1.18618
12.7788	12.7326	0.396608	1.18599
12.7793	12.7322	0.39683	1.1819
12.7798	12.7317	0.39488	1.17718
12.7802	12.7312	0.39682	1.17388
12.7807	12.7307	0.395177	1.1733
12.7812	12.7303	0.395471	1.16795
12.7817	12.7298	0.394664	1.16324
12.7821	12.7293	0.393951	1.16033
12.7826	12.7289	0.394756	1.15185
12.7831	12.7284	0.394539	1.14666
12.7836	12.7279	0.393962	1.14129
12.784	12.7274	0.39396	1.12944
12.7845	12.727	0.393338	1.11566
12.785	12.7265	0.392551	1.09676
12.7854	12.726	0.393242	1.08068
12.7859	12.7255	0.390948	1.04908
12.7864	12.7251	0.388052	1.01086
12.7869	12.7246	0.386643	0.961846
12.7873	12.7241	0.390864	0.90982
12.7878	12.7236	0.3906	0.845825
12.7883	12.7232	0.391326	0.788615
12.7887	12.7227	0.390416	0.732083
12.7892	12.7222	0.39179	0.680009
12.7897	12.7218	0.39385	0.646562
12.7902	12.7213	0.393415	0.62897
12.7906	12.7208	0.392002	0.615018
12.7911	12.7204	0.392994	0.608005
12.7916	12.7199	0.393952	0.606233
12.7921	12.7194	0.39374	0.610757
12.7925	12.719	0.393278	0.616984
12.793	12.7185	0.392209	0.621165
12.7935	12.718	0.392135	0.622651
12.7939	12.7176	0.39245	0.62176
12.7944	12.7171	0.391567	0.617758
12.7949	12.7166	0.392758	0.614015
12.7954	12.7161	0.390569	0.604888
12.7958	12.7157	0.390742	0.594133
12.7963	12.7152	0.391866	0.580599
12.7968	12.7147	0.392899	0.569615
12.7972	12.7142	0.391988	0.560206
12.7977	12.7137	0.390301	0.551867
12.7982	12.7133	0.391107	0.54061
12.7987	12.7128	0.391632	0.527227
12.7991	12.7124	0.391686	0.518938
12.7996	12.7119	0.391159	0.50811
12.8001	12.7114	0.390262	0.494922
12.8006	12.7109	0.390395	0.480293
12.801	12.7104	0.391448	0.466777
12.8015	12.71	0.392556	0.449838
12.802	12.7095	0.39072	0.434494
12.8024	12.7091	0.390083	0.420664
12.8029	12.7086	0.389389	0.401518
12.8034	12.7081	0.389154	0.385515
12.8039	12.7076	0.390085	0.369944
12.8043	12.7072	0.390939	0.35556
12.8048	12.7067	0.388796	0.340913
12.8053	12.7062	0.390965	0.327651
12.8057	12.7057	0.388642	0.314486
12.8062	12.7052	0.393214	0.308267
12.8067	12.7048	0.391689	0.297416
12.8072	12.7043	0.390353	0.289757
12.8076	12.7038	0.390117	0.281787
12.8081	12.7033	0.389866	0.276046
12.8086	12.7029	0.390843	0.274145
12.8091	12.7024	0.390944	0.274632
12.8095	12.7019	0.388007	0.275905
12.81	12.7015	0.389705	0.27563
12.8105	12.701	0.389555	0.278156
12.8109	12.7005	0.389167	0.282493
12.8114	12.7	0.389689	0.288238
12.8119	12.6996	0.388137	0.292362
12.8124	12.6991	0.389054	0.296445
12.8128	12.6987	0.389044	0.300097
12.8133	12.6982	0.389116	0.304761
12.8138	12.6977	0.389719	0.309754
12.8142	12.6972	0.388011	0.312639
12.8147	12.6968	0.387283	0.313294
12.8152	12.6963	0.388824	0.313001
12.8157	12.6958	0.389869	0.31555
12.8161	12.6953	0.389149	0.316062
12.8166	12.6949	0.388186	0.316154
12.8171	12.6944	0.389205	0.311745
12.8176	12.6939	0.389109	0.306289
12.818	12.6934	0.389413	0.30346
12.8185	12.693	0.389586	0.299768
12.819	12.6925	0.388721	0.29467
12.8194	12.6921	0.388616	0.287573
12.8199	12.6916	0.39017	0.281039
12.8204	12.6911	0.389804	0.278221
12.8209	12.6906	0.389745	0.273664
12.8213	12.6902	0.38964	0.271654
12.8218	12.6897	0.38989	0.267328
12.8223	12.6892	0.388826	0.267048
12.8227	12.6888	0.390792	0.268312
12.8232	12.6883	0.389912	0.270811
12.8237	12.6878	0.38899	0.274205
12.8242	12.6874	0.38929	0.275971
12.8246	12.6869	0.389483	0.278871
12.8251	12.6864	0.389846	0.283365
12.8256	12.6859	0.388212	0.290301
12.8261	12.6854	0.388487	0.293967
12.8265	12.685	0.387808	0.29671
12.827	12.6845	0.388354	0.299534
12.8275	12.684	0.389014	0.30421
12.8279	12.6835	0.390177	0.307683
12.8284	12.6831	0.387172	0.310997
12.8289	12.6826	0.388884	0.311882
12.8294	12.6821	0.389743	0.313465
12.8298	12.6817	0.389938	0.318303
12.8303	12.6812	0.390823	0.32242
12.8308	12.6807	0.39086	0.325699
12.8312	12.6802	0.390899	0.327589
12.8317	12.6798	0.390574	0.329396
12.8322	12.6793	0.391526	0.33237
12.8327	12.6788	0.392063	0.335105
12.8331	12.6784	0.391513	0.337955
12.8336	12.6779	0.39256	0.336274
12.8341	12.6774	0.393324	0.337122
12.8346	12.6769	0.392084	0.337605
12.835	12.6765	0.390665	0.338025
12.8355	12.676	0.39124	0.338582
12.836	12.6755	0.391803	0.336702
12.8364	12.675	0.391881	0.3354
12.8369	12.6745	0.391918	0.334522
12.8374	12.6741	0.392538	0.335929
12.8379	12.6736	0.39132	0.335064
12.8383	12.6731	0.391208	0.331831
12.8388	12.6726	0.393037	0.329557
12.8393	12.6722	0.393797	0.330669
12.8397	12.6717	0.392211	0.329717
12.8402	12.6713	0.392509	0.327746
12.8407	12.6708	0.391307	0.323938
12.8412	12.6703	0.391666	0.320891
12.8416	12.6698	0.393025	0.320533
12.8421	12.6694	0.393268	0.31929
12.8426	12.6689	0.390909	0.317189
12.8431	12.6684	0.392455	0.312658
12.8435	12.668	0.392256	0.30968
12.844	12.6675	0.392938	0.308425
12.8445	12.667	0.393442	0.306866
12.8449	12.6666	0.392757	0.303445
12.8454	12.6661	0.392138	0.301539
12.8459	12.6656	0.393081	0.29787
12.8464	12.6651	0.392936	0.295996
12.8468	12.6646	0.394356	0.295735
12.8473	12.6642	0.392156	0.29267
12.8478	12.6637	0.392002	0.288964
12.8482	12.6632	0.393665	0.286606
12.8487	12.6628	0.392075	0.284941
12.8492	12.6623	0.392726	0.284963
12.8497	12.6618	0.390966	0.283655
12.8501	12.6614	0.391003	0.279734
12.8506	12.6609	0.394316	0.276901
12.8511	12.6604	0.391222	0.276187
12.8516	12.66	0.393183	0.275979
12.852	12.6595	0.390225	0.273731
12.8525	12.659	0.388759	0.270085
12.853	12.6586	0.39239	0.270482
12.8534	12.6581	0.391479	0.268915
12.8539	12.6576	0.391909	0.269469
12.8544	12.6571	0.391226	0.270693
12.8549	12.6567	0.390676	0.268859
12.8553	12.6562	0.392397	0.268626
12.8558	12.6557	0.391567	0.270954
12.8563	12.6552	0.393273	0.272497
12.8567	12.6547	0.39174	0.27362
12.8572	12.6543	0.392445	0.273338
12.8577	12.6538	0.393503	0.276409
12.8582	12.6533	0.393147	0.27937
12.8586	12.6529	0.392088	0.28291
12.8591	12.6524	0.391304	0.283061
12.8596	12.6519	0.391378	0.284986
12.8601	12.6515	0.393475	0.28682
12.8605	12.651	0.392889	0.290108
12.861	12.6505	0.392418	0.294155
12.8615	12.65	0.390774	0.295129
12.8619	12.6495	0.391463	0.296068
12.8624	12.6491	0.391438	0.298776
12.8629	12.6486	0.391815	0.301587
12.8634	12.6481	0.390779	0.304143
12.8638	12.6477	0.389542	0.305664
12.8643	12.6472	0.390174	0.305655
12.8648	12.6467	0.389086	0.306397
12.8652	12.6462	0.387834	0.308171
12.8657	12.6458	0.388425	0.31028
12.8662	12.6453	0.386229	0.309875
12.8667	12.6448	0.385332	0.310244
12.8671	12.6443	0.389389	0.312869
12.8676	12.6438	0.387909	0.315161
12.8681	12.6434	0.38895	0.317504
12.8686	12.6429	0.388668	0.317281
12.869	12.6424	0.390758	0.31562
12.8695	12.642	0.391469	0.317189
12.87	12.6415	0.390366	0.318676
12.8704	12.641	0.390597	0.320561
12.8709	12.6406	0.390455	0.318381
12.8714	12.6401	0.39048	0.317248
12.8719	12.6396	0.392179	0.317215
12.8723	12.6392	0.390524	0.316491
12.8728	12.6387	0.389855	0.316695
12.8733	12.6382	0.3899	0.317194
12.8737	12.6378	0.389195	0.314731
12.8742	12.6373	0.389825	0.314832
12.8747	12.6368	0.390226	0.314769
12.8752	12.6363	0.389715	0.313686
12.8756	12.6359	0.389524	0.313997
12.8761	12.6354	0.388972	0.309907
12.8766	12.6349	0.388928	0.310675
12.8771	12.6344	0.389427	0.311174
12.8775	12.634	0.389081	0.311068
12.878	12.6335	0.388202	0.310484
12.8785	12.633	0.388917	0.307321
12.8789	12.6326	0.388913	0.307799
12.8794	12.6321	0.389173	0.309587
12.8799	12.6316	0.388494	0.31056
12.8804	12.6312	0.387887	0.30991
12.8808	12.6307	0.387024	0.308387
12.8813	12.6302	0.389695	0.310757
12.8818	12.6297	0.389028	0.310043
12.8822	12.6293	0.387965	0.311063
12.8827	12.6288	0.386669	0.312511
12.8832	12.6283	0.387665	0.309007
12.8837	12.6279	0.388792	0.310637
12.8841	12.6274	0.389575	0.30997
12.8846	12.6269	0.387321	0.312182
12.8851	12.6264	0.387919	0.309123
12.8856	12.626	0.386815	0.307781
12.886	12.6255	0.388558	0.307935
12.8865	12.625	0.388399	0.307843
12.887	12.6245	0.387959	0.308551
12.8874	12.624	0.387355	0.308328
12.8879	12.6236	0.387001	0.304854
12.8884	12.6231	0.388518	0.304145
12.8889	12.6226	0.388336	0.304691
12.8893	12.6222	0.387038	0.3041
12.8898	12.6217	0.387008	0.301413
12.8903	12.6212	0.386086	0.3013
12.8907	12.6207	0.387812	0.30027
12.8912	12.6203	0.385278	0.300823
12.8917	12.6198	0.38669	0.302579
12.8922	12.6193	0.384888	0.300139
12.8926	12.6189	0.38519	0.299161
12.8931	12.6184	0.388071	0.298999
12.8936	12.6179	0.386068	0.300814
12.8941	12.6174	0.385031	0.301292
12.8945	12.617	0.384812	0.299951
12.895	12.6165	0.385938	0.298783
12.8955	12.616	0.386286	0.300285
12.8959	12.6155	0.385335	0.29943
12.8964	12.615	0.384629	0.299276
12.8969	12.6146	0.38428	0.298523
12.8974	12.6141	0.383451	0.296788
12.8978	12.6136	0.386171	0.296229
12.8983	12.6132	0.384421	0.297455
12.8988	12.6127	0.38489	0.298907
