# 1304     AichiSR QXAFS
# Start     : 8.9544
# End       : 9.0544
# Dir       : Backward
# Points    : 300
# ScanTime  : 1.01549
# Date      : 13.04.23 22:21
# Ring Cur. : 25.5[mA]
12.7557	12.6117	0.301511	0.231487
12.7562	12.6122	0.297993	0.227894
12.7566	12.6127	0.30346	0.231425
12.7571	12.6131	0.30339	0.234378
12.7576	12.6136	0.300729	0.233465
12.7581	12.6141	0.302871	0.234216
12.7585	12.6145	0.30524	0.235601
12.759	12.615	0.305186	0.235218
12.7595	12.6155	0.303717	0.236487
12.7599	12.616	0.307041	0.240211
12.7604	12.6164	0.304145	0.236023
12.7609	12.6169	0.304728	0.235602
12.7614	12.6174	0.306249	0.237728
12.7618	12.6179	0.306015	0.238431
12.7623	12.6183	0.302009	0.238195
12.7628	12.6188	0.304769	0.239193
12.7632	12.6193	0.305713	0.236078
12.7637	12.6197	0.305862	0.237152
12.7642	12.6202	0.306466	0.239464
12.7647	12.6207	0.306419	0.240727
12.7651	12.6212	0.304584	0.237854
12.7656	12.6217	0.303302	0.237707
12.7661	12.6221	0.309727	0.241337
12.7666	12.6226	0.306797	0.240821
12.767	12.623	0.306491	0.242205
12.7675	12.6235	0.30626	0.240256
12.768	12.624	0.307385	0.239777
12.7684	12.6245	0.307608	0.242596
12.7689	12.6249	0.306155	0.244136
12.7694	12.6254	0.306473	0.244703
12.7699	12.6259	0.306207	0.244757
12.7703	12.6264	0.306194	0.244625
12.7708	12.6269	0.307576	0.244597
12.7713	12.6273	0.308619	0.246419
12.7717	12.6278	0.306632	0.248316
12.7722	12.6283	0.309553	0.249068
12.7727	12.6288	0.306204	0.245721
12.7732	12.6292	0.309602	0.246902
12.7736	12.6297	0.309851	0.248881
12.7741	12.6301	0.308043	0.248454
12.7746	12.6306	0.307609	0.246746
12.7751	12.6311	0.307852	0.245511
12.7755	12.6316	0.311373	0.246374
12.776	12.632	0.309606	0.246656
12.7765	12.6325	0.309003	0.24716
12.7769	12.633	0.309759	0.246403
12.7774	12.6334	0.308052	0.245783
12.7779	12.6339	0.311129	0.247918
12.7784	12.6344	0.309638	0.248055
12.7788	12.6349	0.309795	0.249879
12.7793	12.6353	0.309282	0.24831
12.7798	12.6358	0.310784	0.248162
12.7802	12.6363	0.31227	0.249496
12.7807	12.6368	0.310759	0.251252
12.7812	12.6372	0.310294	0.251409
12.7817	12.6377	0.310169	0.250687
12.7821	12.6382	0.310474	0.250246
12.7826	12.6386	0.311383	0.251702
12.7831	12.6391	0.311002	0.253652
12.7836	12.6396	0.310439	0.255557
12.784	12.64	0.30989	0.253105
12.7845	12.6405	0.310889	0.251691
12.785	12.641	0.312754	0.254977
12.7854	12.6415	0.313567	0.255837
12.7859	12.6419	0.310282	0.256512
12.7864	12.6424	0.311561	0.254519
12.7869	12.6428	0.312494	0.25405
12.7873	12.6433	0.311763	0.251717
12.7878	12.6438	0.312417	0.254369
12.7883	12.6442	0.311713	0.254443
12.7887	12.6447	0.31104	0.250936
12.7892	12.6452	0.309301	0.248822
12.7897	12.6457	0.311703	0.25038
12.7902	12.6462	0.311958	0.249439
12.7906	12.6467	0.309781	0.249206
12.7911	12.6471	0.310329	0.24692
12.7916	12.6476	0.312227	0.246649
12.7921	12.6481	0.313852	0.245347
12.7925	12.6486	0.312888	0.245895
12.793	12.649	0.312543	0.244575
12.7935	12.6495	0.313193	0.240899
12.7939	12.65	0.313964	0.239586
12.7944	12.6504	0.314254	0.238524
12.7949	12.6509	0.31614	0.237919
12.7954	12.6514	0.313415	0.236009
12.7958	12.6519	0.31346	0.232803
12.7963	12.6523	0.316317	0.230263
12.7968	12.6528	0.317061	0.230037
12.7972	12.6533	0.316633	0.229362
12.7977	12.6537	0.316027	0.227224
12.7982	12.6542	0.315998	0.224575
12.7987	12.6547	0.315446	0.221945
12.7991	12.6552	0.315276	0.219987
12.7996	12.6556	0.317518	0.222416
12.8001	12.6561	0.316803	0.221642
12.8006	12.6566	0.315828	0.217904
12.801	12.6571	0.316663	0.217405
12.8015	12.6576	0.317037	0.218411
12.802	12.658	0.317211	0.219631
12.8024	12.6585	0.31645	0.219414
12.8029	12.659	0.314616	0.218599
12.8034	12.6594	0.316636	0.219313
12.8039	12.6599	0.317123	0.220027
12.8043	12.6604	0.317774	0.223103
12.8048	12.6608	0.316491	0.224812
12.8053	12.6613	0.317106	0.224884
12.8057	12.6618	0.318661	0.225836
12.8062	12.6623	0.316875	0.227425
12.8067	12.6627	0.3174	0.230635
12.8072	12.6632	0.318591	0.231955
12.8076	12.6636	0.318741	0.233182
12.8081	12.6641	0.318614	0.233587
12.8086	12.6646	0.319108	0.2358
12.8091	12.6651	0.319295	0.239742
12.8095	12.6655	0.318308	0.241741
12.81	12.666	0.318995	0.241929
12.8105	12.6665	0.320076	0.242778
12.8109	12.667	0.318861	0.246001
12.8114	12.6675	0.318632	0.249167
12.8119	12.6679	0.318075	0.251776
12.8124	12.6684	0.318237	0.250495
12.8128	12.6689	0.319213	0.252175
12.8133	12.6693	0.321578	0.256786
12.8138	12.6698	0.319573	0.258838
12.8142	12.6702	0.317594	0.261283
12.8147	12.6707	0.318334	0.261572
12.8152	12.6712	0.321669	0.263566
12.8157	12.6717	0.31851	0.264857
12.8161	12.6721	0.318401	0.267808
12.8166	12.6726	0.32031	0.270094
12.8171	12.6731	0.318463	0.269245
12.8176	12.6735	0.31999	0.268765
12.818	12.674	0.319504	0.272573
12.8185	12.6745	0.320237	0.274176
12.819	12.675	0.318527	0.274993
12.8194	12.6754	0.31918	0.273842
12.8199	12.6759	0.321186	0.274649
12.8204	12.6764	0.319806	0.275604
12.8209	12.6769	0.320726	0.276707
12.8213	12.6774	0.320343	0.278759
12.8218	12.6778	0.319546	0.275659
12.8223	12.6783	0.321728	0.276287
12.8227	12.6788	0.320549	0.275571
12.8232	12.6792	0.322249	0.277065
12.8237	12.6797	0.320517	0.275371
12.8242	12.6802	0.319402	0.271251
12.8246	12.6807	0.322824	0.269917
12.8251	12.6811	0.321358	0.267434
12.8256	12.6816	0.319618	0.266564
12.8261	12.6821	0.321049	0.264239
12.8265	12.6825	0.319836	0.260708
12.827	12.683	0.319778	0.256265
12.8275	12.6835	0.320851	0.256568
12.8279	12.684	0.320077	0.255307
12.8284	12.6844	0.318988	0.250818
12.8289	12.6849	0.319975	0.249532
12.8294	12.6854	0.322827	0.246944
12.8298	12.6859	0.321625	0.24431
12.8303	12.6864	0.320394	0.240471
12.8308	12.6868	0.321358	0.238272
12.8312	12.6873	0.319367	0.232501
12.8317	12.6878	0.320947	0.228302
12.8322	12.6883	0.322078	0.227818
12.8327	12.6887	0.321495	0.224778
12.8331	12.6892	0.320362	0.223046
12.8336	12.6896	0.321249	0.220901
12.8341	12.6901	0.324177	0.222307
12.8346	12.6906	0.32234	0.222844
12.835	12.6911	0.322319	0.226249
12.8355	12.6915	0.32251	0.229154
12.836	12.692	0.321285	0.230219
12.8364	12.6925	0.323841	0.235065
12.8369	12.6929	0.322145	0.241427
12.8374	12.6934	0.321263	0.246606
12.8379	12.6939	0.318847	0.249293
12.8383	12.6943	0.321256	0.253229
12.8388	12.6948	0.323579	0.257068
12.8393	12.6953	0.319661	0.257324
12.8397	12.6958	0.321332	0.261079
12.8402	12.6962	0.322168	0.263356
12.8407	12.6967	0.320634	0.261032
12.8412	12.6972	0.322138	0.260254
12.8416	12.6977	0.323452	0.26032
12.8421	12.6981	0.322543	0.260082
12.8426	12.6986	0.320348	0.253604
12.8431	12.6991	0.320348	0.24959
12.8435	12.6995	0.323892	0.247598
12.844	12.7	0.319978	0.243552
12.8445	12.7005	0.320511	0.241571
12.8449	12.7009	0.320168	0.237617
12.8454	12.7014	0.319975	0.231447
12.8459	12.7019	0.320559	0.227672
12.8464	12.7023	0.321311	0.228407
12.8468	12.7028	0.322673	0.227788
12.8473	12.7033	0.320792	0.226494
12.8478	12.7038	0.321408	0.227246
12.8482	12.7042	0.323941	0.231756
12.8487	12.7047	0.322387	0.235465
12.8492	12.7052	0.32207	0.2429
12.8497	12.7057	0.324539	0.250897
12.8501	12.7062	0.322675	0.255146
12.8506	12.7066	0.322946	0.264623
12.8511	12.7071	0.322465	0.27652
12.8516	12.7076	0.324974	0.289054
12.852	12.7081	0.320304	0.300009
12.8525	12.7085	0.320643	0.310776
12.853	12.709	0.324036	0.325405
12.8534	12.7095	0.324105	0.340135
12.8539	12.7099	0.323126	0.354755
12.8544	12.7104	0.322831	0.368296
12.8549	12.7109	0.326227	0.380629
12.8553	12.7114	0.326427	0.391558
12.8558	12.7118	0.323356	0.405231
12.8563	12.7123	0.324458	0.417722
12.8567	12.7128	0.322301	0.425174
12.8572	12.7132	0.322584	0.4315
12.8577	12.7137	0.32401	0.44163
12.8582	12.7142	0.323222	0.451379
12.8586	12.7147	0.322636	0.457959
12.8591	12.7151	0.324565	0.468175
12.8596	12.7156	0.323985	0.474638
12.8601	12.7161	0.323728	0.483102
12.8605	12.7166	0.322904	0.495689
12.861	12.717	0.323345	0.50393
12.8615	12.7175	0.322587	0.508354
12.8619	12.718	0.323067	0.510573
12.8624	12.7185	0.322613	0.51393
12.8629	12.7189	0.321923	0.509595
12.8634	12.7194	0.32082	0.510102
12.8638	12.7198	0.321166	0.504565
12.8643	12.7203	0.321797	0.497875
12.8648	12.7208	0.321383	0.495658
12.8652	12.7213	0.32285	0.500138
12.8657	12.7217	0.322363	0.507738
12.8662	12.7222	0.31885	0.516313
12.8667	12.7227	0.321091	0.540275
12.8671	12.7231	0.32323	0.574848
12.8676	12.7236	0.317138	0.614513
12.8681	12.7241	0.317794	0.664653
12.8686	12.7245	0.318762	0.717242
12.869	12.725	0.316934	0.761534
12.8695	12.7255	0.318161	0.79848
12.87	12.726	0.319784	0.840006
12.8704	12.7264	0.320109	0.868793
12.8709	12.7269	0.318022	0.882304
12.8714	12.7274	0.318599	0.902145
12.8719	12.7279	0.32205	0.914783
12.8723	12.7283	0.318907	0.916769
12.8728	12.7288	0.319295	0.92732
12.8733	12.7293	0.320958	0.936806
12.8737	12.7297	0.319782	0.935254
12.8742	12.7302	0.320794	0.939346
12.8747	12.7307	0.320655	0.950448
12.8752	12.7312	0.320959	0.952044
12.8756	12.7316	0.320448	0.950541
12.8761	12.7321	0.321035	0.953085
12.8766	12.7326	0.322309	0.956681
12.8771	12.733	0.321142	0.958661
12.8775	12.7335	0.319212	0.961687
12.878	12.734	0.320612	0.965203
12.8785	12.7345	0.321603	0.964927
12.8789	12.735	0.327457	0.978125
12.8794	12.7354	0.32462	0.976272
12.8799	12.7359	0.321773	0.971372
12.8804	12.7364	0.322945	0.970328
12.8808	12.7369	0.322498	0.971534
12.8813	12.7374	0.3224	0.970912
12.8818	12.7378	0.32233	0.973551
12.8822	12.7383	0.321447	0.971772
12.8827	12.7388	0.322392	0.974238
12.8832	12.7392	0.324924	0.978356
12.8837	12.7397	0.324259	0.978
12.8841	12.7402	0.323051	0.97937
12.8846	12.7406	0.32356	0.983652
12.8851	12.7411	0.323561	0.9826
12.8856	12.7416	0.323852	0.980966
12.886	12.7421	0.323734	0.979843
12.8865	12.7425	0.323643	0.979527
12.887	12.743	0.320762	0.977485
12.8874	12.7435	0.323827	0.980761
12.8879	12.7439	0.324438	0.98262
12.8884	12.7444	0.323938	0.982115
12.8889	12.7449	0.326482	0.987758
12.8893	12.7454	0.325303	0.992483
12.8898	12.7458	0.325112	0.990144
12.8903	12.7463	0.326248	0.990921
12.8907	12.7468	0.327694	0.996466
12.8912	12.7473	0.326925	0.991498
12.8917	12.7477	0.324359	0.992431
12.8922	12.7482	0.325869	0.99422
12.8926	12.7487	0.32604	0.992049
12.8931	12.7491	0.326235	0.990929
12.8936	12.7496	0.327243	0.99805
12.8941	12.7501	0.327472	1.00037
12.8945	12.7505	0.325654	0.991181
12.895	12.751	0.32797	0.99565
12.8955	12.7515	0.328445	1.00239
12.8959	12.752	0.327817	1.00117
12.8964	12.7524	0.327464	0.999574
12.8969	12.7529	0.328838	1.00164
12.8974	12.7533	0.328989	0.999886
12.8978	12.7538	0.326624	0.99755
12.8983	12.7543	0.330387	1.00522
12.8988	12.7548	0.328869	1.00692
