# 1304     AichiSR QXAFS
# Start     : 8.9544
# End       : 9.0544
# Dir       : Forward
# Points    : 300
# ScanTime  : 1.01549
# Date      : 13.04.23 22:26
# Ring Cur. : 25.4[mA]
12.7557	12.7557	0.401811	1.23078
12.7562	12.7553	0.40273	1.22571
12.7566	12.7548	0.403092	1.22503
12.7571	12.7543	0.402633	1.2261
12.7576	12.7538	0.402555	1.22653
12.7581	12.7534	0.400193	1.22486
12.7585	12.7529	0.40281	1.22331
12.759	12.7524	0.403123	1.22401
12.7595	12.752	0.401564	1.22637
12.7599	12.7515	0.402783	1.22553
12.7604	12.751	0.401927	1.22827
12.7609	12.7506	0.401418	1.22388
12.7614	12.7501	0.401285	1.22253
12.7618	12.7496	0.4017	1.22356
12.7623	12.7492	0.402731	1.22553
12.7628	12.7487	0.401668	1.22441
12.7632	12.7482	0.402624	1.22293
12.7637	12.7478	0.402219	1.2207
12.7642	12.7473	0.401744	1.22289
12.7647	12.7468	0.402209	1.22408
12.7651	12.7463	0.400068	1.2232
12.7656	12.7459	0.400921	1.22031
12.7661	12.7454	0.402622	1.21836
12.7666	12.7449	0.402544	1.21913
12.767	12.7444	0.402258	1.22105
12.7675	12.744	0.400321	1.21855
12.768	12.7435	0.400787	1.21487
12.7684	12.743	0.402238	1.21639
12.7689	12.7426	0.400963	1.2174
12.7694	12.7421	0.40345	1.22127
12.7699	12.7416	0.401384	1.21825
12.7703	12.7412	0.400293	1.21511
12.7708	12.7407	0.401966	1.21279
12.7713	12.7402	0.400858	1.21372
12.7717	12.7397	0.401742	1.21426
12.7722	12.7393	0.39895	1.21213
12.7727	12.7388	0.40219	1.20875
12.7732	12.7383	0.401121	1.20849
12.7736	12.7379	0.400663	1.20922
12.7741	12.7374	0.400049	1.21045
12.7746	12.7369	0.399132	1.21057
12.7751	12.7364	0.400378	1.20224
12.7755	12.7359	0.401887	1.20466
12.776	12.7355	0.399762	1.20347
12.7765	12.735	0.399512	1.20512
12.7769	12.7345	0.399173	1.20223
12.7774	12.734	0.398398	1.19918
12.7779	12.7335	0.399129	1.19345
12.7784	12.7331	0.399467	1.19395
12.7788	12.7326	0.398972	1.19556
12.7793	12.7321	0.398971	1.19359
12.7798	12.7317	0.399164	1.18422
12.7802	12.7312	0.398874	1.18593
12.7807	12.7307	0.398724	1.18618
12.7812	12.7302	0.400534	1.17946
12.7817	12.7298	0.397257	1.17521
12.7821	12.7293	0.396759	1.16849
12.7826	12.7288	0.399384	1.15938
12.7831	12.7284	0.398226	1.15734
12.7836	12.7279	0.399165	1.15025
12.784	12.7274	0.397174	1.14234
12.7845	12.7269	0.396314	1.12513
12.785	12.7265	0.396269	1.10768
12.7854	12.726	0.396237	1.08758
12.7859	12.7255	0.39447	1.05853
12.7864	12.725	0.391795	1.0216
12.7869	12.7246	0.391826	0.968898
12.7873	12.7241	0.393174	0.916137
12.7878	12.7236	0.393521	0.856346
12.7883	12.7232	0.394969	0.798322
12.7887	12.7227	0.39674	0.741756
12.7892	12.7222	0.395765	0.689589
12.7897	12.7218	0.396792	0.656123
12.7902	12.7213	0.39803	0.636782
12.7906	12.7208	0.397392	0.6219
12.7911	12.7203	0.395474	0.615018
12.7916	12.7199	0.396356	0.611376
12.7921	12.7194	0.396917	0.616573
12.7925	12.719	0.396737	0.620542
12.793	12.7185	0.396694	0.626481
12.7935	12.718	0.397033	0.629682
12.7939	12.7176	0.395469	0.626501
12.7944	12.7171	0.397244	0.626805
12.7949	12.7166	0.396773	0.621416
12.7954	12.7161	0.39665	0.614805
12.7958	12.7156	0.396306	0.601285
12.7963	12.7152	0.39581	0.587933
12.7968	12.7147	0.39581	0.577506
12.7972	12.7142	0.395903	0.567677
12.7977	12.7137	0.396669	0.558779
12.7982	12.7133	0.395309	0.548974
12.7987	12.7128	0.395386	0.535258
12.7991	12.7123	0.397925	0.526095
12.7996	12.7119	0.396565	0.514525
12.8001	12.7114	0.396727	0.502854
12.8006	12.7109	0.395121	0.487574
12.801	12.7104	0.395279	0.471395
12.8015	12.71	0.397017	0.457626
12.802	12.7095	0.394438	0.44128
12.8024	12.709	0.395959	0.426404
12.8029	12.7086	0.395395	0.409889
12.8034	12.7081	0.394699	0.389711
12.8039	12.7076	0.395736	0.374274
12.8043	12.7071	0.396155	0.361204
12.8048	12.7067	0.396389	0.346376
12.8053	12.7062	0.3947	0.331674
12.8057	12.7057	0.396272	0.318798
12.8062	12.7052	0.396092	0.308711
12.8067	12.7047	0.394919	0.29931
12.8072	12.7043	0.395	0.292731
12.8076	12.7038	0.395808	0.286153
12.8081	12.7033	0.393839	0.279154
12.8086	12.7028	0.395627	0.277733
12.8091	12.7024	0.395248	0.278271
12.8095	12.7019	0.394305	0.279112
12.81	12.7014	0.393385	0.280543
12.8105	12.701	0.394253	0.280862
12.8109	12.7005	0.395168	0.285323
12.8114	12.7	0.393174	0.291544
12.8119	12.6996	0.393465	0.297136
12.8124	12.6991	0.393362	0.299303
12.8128	12.6986	0.393457	0.302732
12.8133	12.6982	0.395037	0.30704
12.8138	12.6977	0.395515	0.312155
12.8142	12.6972	0.393939	0.316151
12.8147	12.6967	0.392954	0.316935
12.8152	12.6963	0.393483	0.318025
12.8157	12.6958	0.395075	0.317702
12.8161	12.6953	0.392533	0.318831
12.8166	12.6948	0.394476	0.319356
12.8171	12.6944	0.393255	0.314971
12.8176	12.6939	0.392553	0.309857
12.818	12.6934	0.394973	0.305845
12.8185	12.6929	0.392369	0.302511
12.819	12.6925	0.392062	0.296867
12.8194	12.692	0.39205	0.290062
12.8199	12.6916	0.391129	0.283776
12.8204	12.6911	0.393436	0.279148
12.8209	12.6906	0.391113	0.275831
12.8213	12.6901	0.391601	0.273147
12.8218	12.6897	0.392428	0.270073
12.8223	12.6892	0.391377	0.268656
12.8227	12.6888	0.392255	0.268674
12.8232	12.6883	0.391051	0.271968
12.8237	12.6878	0.388468	0.275427
12.8242	12.6873	0.390432	0.276916
12.8246	12.6869	0.390264	0.280027
12.8251	12.6864	0.392344	0.284189
12.8256	12.6859	0.388359	0.288981
12.8261	12.6854	0.389004	0.29309
12.8265	12.6849	0.389594	0.296511
12.827	12.6845	0.387329	0.297898
12.8275	12.684	0.388898	0.303523
12.8279	12.6835	0.389879	0.307465
12.8284	12.683	0.387457	0.311153
12.8289	12.6826	0.387518	0.312403
12.8294	12.6821	0.386614	0.312996
12.8298	12.6817	0.389877	0.317528
12.8303	12.6812	0.38795	0.321513
12.8308	12.6807	0.389472	0.325933
12.8312	12.6802	0.38978	0.32601
12.8317	12.6797	0.3891	0.326657
12.8322	12.6793	0.390089	0.330598
12.8327	12.6788	0.391375	0.334041
12.8331	12.6784	0.389405	0.33593
12.8336	12.6779	0.389898	0.335569
12.8341	12.6774	0.389047	0.33368
12.8346	12.6769	0.390904	0.334168
12.835	12.6764	0.388513	0.337152
12.8355	12.676	0.388851	0.335839
12.836	12.6755	0.389326	0.334134
12.8364	12.675	0.388196	0.332201
12.8369	12.6745	0.389337	0.332643
12.8374	12.674	0.389447	0.333605
12.8379	12.6736	0.387565	0.332288
12.8383	12.6731	0.388703	0.329892
12.8388	12.6726	0.389486	0.326929
12.8393	12.6722	0.390118	0.327225
12.8397	12.6717	0.389042	0.32575
12.8402	12.6712	0.387955	0.323652
12.8407	12.6708	0.387834	0.321643
12.8412	12.6703	0.387692	0.317791
12.8416	12.6698	0.391568	0.319054
12.8421	12.6694	0.391376	0.319611
12.8426	12.6689	0.385847	0.312798
12.8431	12.6684	0.388856	0.309577
12.8435	12.668	0.388244	0.306678
12.844	12.6675	0.388443	0.303836
12.8445	12.667	0.388974	0.303867
12.8449	12.6665	0.386519	0.301174
12.8454	12.6661	0.388289	0.297239
12.8459	12.6656	0.387896	0.293379
12.8464	12.6651	0.388738	0.292886
12.8468	12.6646	0.388274	0.291566
12.8473	12.6642	0.38617	0.288979
12.8478	12.6637	0.386569	0.285014
12.8482	12.6632	0.387123	0.28249
12.8487	12.6628	0.386341	0.282627
12.8492	12.6623	0.387418	0.281311
12.8497	12.6618	0.38599	0.279375
12.8501	12.6614	0.385452	0.275859
12.8506	12.6609	0.386383	0.27308
12.8511	12.6604	0.386999	0.272131
12.8516	12.6599	0.388079	0.273236
12.852	12.6595	0.38649	0.269826
12.8525	12.659	0.386399	0.268743
12.853	12.6585	0.387766	0.266844
12.8534	12.6581	0.387117	0.265886
12.8539	12.6576	0.387663	0.267993
12.8544	12.6571	0.385475	0.266822
12.8549	12.6566	0.388208	0.26726
12.8553	12.6562	0.387491	0.266408
12.8558	12.6557	0.386453	0.266753
12.8563	12.6552	0.387777	0.269192
12.8567	12.6547	0.387129	0.270569
12.8572	12.6542	0.386746	0.270494
12.8577	12.6538	0.388544	0.272345
12.8582	12.6533	0.388655	0.275442
12.8586	12.6528	0.388051	0.278759
12.8591	12.6524	0.387572	0.280792
12.8596	12.6519	0.390212	0.282274
12.8601	12.6514	0.388953	0.284036
12.8605	12.651	0.389278	0.287003
12.861	12.6505	0.389574	0.291749
12.8615	12.65	0.388917	0.291713
12.8619	12.6495	0.38841	0.294555
12.8624	12.6491	0.389409	0.296883
12.8629	12.6486	0.389367	0.298994
12.8634	12.6481	0.389018	0.302807
12.8638	12.6477	0.387249	0.304194
12.8643	12.6472	0.387753	0.303608
12.8648	12.6467	0.386051	0.304564
12.8652	12.6462	0.385996	0.306059
12.8657	12.6457	0.385766	0.309632
12.8662	12.6453	0.383221	0.309974
12.8667	12.6448	0.384253	0.309997
12.8671	12.6443	0.38739	0.310566
12.8676	12.6438	0.387275	0.312913
12.8681	12.6434	0.388546	0.314741
12.8686	12.6429	0.386884	0.315499
12.869	12.6424	0.387276	0.314818
12.8695	12.642	0.389449	0.315286
12.87	12.6415	0.389361	0.317449
12.8704	12.641	0.39015	0.318029
12.8709	12.6406	0.388491	0.317975
12.8714	12.6401	0.388541	0.316185
12.8719	12.6396	0.389925	0.317042
12.8723	12.6392	0.389384	0.315849
12.8728	12.6387	0.390907	0.316788
12.8733	12.6382	0.389751	0.317458
12.8737	12.6378	0.38914	0.313661
12.8742	12.6373	0.39005	0.313286
12.8747	12.6368	0.389829	0.313402
12.8752	12.6363	0.390574	0.31433
12.8756	12.6359	0.387492	0.311501
12.8761	12.6354	0.389224	0.310331
12.8766	12.6349	0.390442	0.310349
12.8771	12.6344	0.390399	0.310862
12.8775	12.6339	0.388775	0.31186
12.878	12.6335	0.38861	0.311619
12.8785	12.633	0.38859	0.309141
12.8789	12.6326	0.390158	0.307949
12.8794	12.6321	0.38944	0.309504
12.8799	12.6316	0.389972	0.311708
12.8804	12.6311	0.388092	0.31077
12.8808	12.6307	0.388197	0.309955
12.8813	12.6302	0.390299	0.309847
12.8818	12.6297	0.390335	0.311008
12.8822	12.6293	0.389273	0.313177
12.8827	12.6288	0.389643	0.311815
12.8832	12.6283	0.389491	0.311407
12.8837	12.6279	0.389502	0.309677
12.8841	12.6274	0.388214	0.311115
12.8846	12.6269	0.389442	0.312859
12.8851	12.6264	0.389961	0.310959
12.8856	12.6259	0.387854	0.30859
12.886	12.6255	0.389834	0.308261
12.8865	12.625	0.391177	0.308065
12.887	12.6245	0.388524	0.30872
12.8874	12.624	0.388164	0.307444
12.8879	12.6235	0.388569	0.305447
12.8884	12.6231	0.390646	0.307114
12.8889	12.6226	0.389322	0.305762
12.8893	12.6221	0.388464	0.306888
12.8898	12.6217	0.38806	0.30368
12.8903	12.6212	0.387565	0.301595
12.8907	12.6207	0.390398	0.30236
12.8912	12.6202	0.389136	0.301792
12.8917	12.6198	0.388585	0.303203
12.8922	12.6193	0.38885	0.30307
12.8926	12.6188	0.389322	0.301142
12.8931	12.6184	0.390597	0.300716
12.8936	12.6179	0.38776	0.300204
12.8941	12.6174	0.389319	0.303407
12.8945	12.6169	0.387378	0.303118
12.895	12.6165	0.386486	0.299912
12.8955	12.616	0.389578	0.302357
12.8959	12.6155	0.388312	0.301102
12.8964	12.615	0.388036	0.301712
12.8969	12.6146	0.388045	0.300229
12.8974	12.6141	0.387927	0.299254
12.8978	12.6136	0.389108	0.298863
12.8983	12.6131	0.388111	0.298875
12.8988	12.6127	0.387721	0.300421
