# 1304     AichiSR QXAFS
# Start     : 8.9544
# End       : 9.0544
# Dir       : Backward
# Points    : 300
# ScanTime  : 1.01549
# Date      : 13.04.23 22:26
# Ring Cur. : 25.5[mA]
12.7557	12.6118	0.302991	0.230532
12.7562	12.6122	0.30486	0.234585
12.7566	12.6127	0.301655	0.233246
12.7571	12.6131	0.301537	0.232667
12.7576	12.6136	0.302373	0.232976
12.7581	12.6141	0.302581	0.233171
12.7585	12.6146	0.304781	0.237297
12.759	12.615	0.303316	0.236482
12.7595	12.6155	0.303616	0.235981
12.7599	12.616	0.304967	0.236681
12.7604	12.6165	0.305309	0.237185
12.7609	12.6169	0.30467	0.237712
12.7614	12.6174	0.303172	0.238205
12.7618	12.6179	0.306812	0.238454
12.7623	12.6184	0.304332	0.236049
12.7628	12.6188	0.305422	0.236941
12.7632	12.6193	0.30554	0.240255
12.7637	12.6198	0.305281	0.239381
12.7642	12.6202	0.303532	0.236456
12.7647	12.6207	0.305123	0.236515
12.7651	12.6212	0.306209	0.238194
12.7656	12.6217	0.304306	0.23825
12.7661	12.6221	0.30553	0.240661
12.7666	12.6226	0.307022	0.239191
12.767	12.6231	0.304684	0.237849
12.7675	12.6235	0.306829	0.240698
12.768	12.624	0.308796	0.243169
12.7684	12.6245	0.305145	0.244125
12.7689	12.625	0.30319	0.241533
12.7694	12.6254	0.306752	0.244542
12.7699	12.6259	0.306193	0.243321
12.7703	12.6264	0.306735	0.245107
12.7708	12.6269	0.306584	0.247189
12.7713	12.6274	0.305668	0.244485
12.7717	12.6278	0.305426	0.243968
12.7722	12.6283	0.305237	0.245893
12.7727	12.6288	0.306674	0.247747
12.7732	12.6292	0.306223	0.246978
12.7736	12.6297	0.306777	0.245078
12.7741	12.6302	0.307883	0.245248
12.7746	12.6307	0.306607	0.245166
12.7751	12.6311	0.306849	0.245922
12.7755	12.6316	0.308966	0.248145
12.776	12.6321	0.306507	0.244541
12.7765	12.6325	0.308163	0.245046
12.7769	12.633	0.308367	0.244731
12.7774	12.6335	0.307909	0.246815
12.7779	12.6339	0.30694	0.246276
12.7784	12.6344	0.306333	0.245357
12.7788	12.6349	0.308616	0.244923
12.7793	12.6354	0.307808	0.245828
12.7798	12.6358	0.308029	0.248113
12.7802	12.6363	0.30956	0.248615
12.7807	12.6368	0.308011	0.248397
12.7812	12.6373	0.306645	0.245904
12.7817	12.6377	0.310825	0.249447
12.7821	12.6382	0.30946	0.251389
12.7826	12.6387	0.30928	0.252033
12.7831	12.6391	0.307228	0.250498
12.7836	12.6396	0.310391	0.251915
12.784	12.6401	0.307786	0.251526
12.7845	12.6405	0.306886	0.252955
12.785	12.641	0.309263	0.254431
12.7854	12.6415	0.307991	0.251187
12.7859	12.642	0.310824	0.251341
12.7864	12.6424	0.30874	0.252558
12.7869	12.6429	0.311023	0.253397
12.7873	12.6433	0.30749	0.252437
12.7878	12.6438	0.307323	0.251301
12.7883	12.6443	0.308657	0.248699
12.7887	12.6448	0.307836	0.249329
12.7892	12.6452	0.307723	0.248833
12.7897	12.6457	0.308176	0.249364
12.7902	12.6462	0.306395	0.245991
12.7906	12.6467	0.308069	0.244892
12.7911	12.6472	0.307191	0.245732
12.7916	12.6476	0.309936	0.246497
12.7921	12.6481	0.308576	0.243587
12.7925	12.6486	0.307564	0.240248
12.793	12.6491	0.311355	0.239601
12.7935	12.6495	0.309816	0.239381
12.7939	12.65	0.311308	0.237944
12.7944	12.6505	0.31215	0.235697
12.7949	12.6509	0.312185	0.233771
12.7954	12.6514	0.31269	0.231644
12.7958	12.6519	0.312102	0.229846
12.7963	12.6524	0.314281	0.231054
12.7968	12.6528	0.311692	0.226961
12.7972	12.6533	0.311091	0.222772
12.7977	12.6538	0.312982	0.222001
12.7982	12.6542	0.311804	0.222142
12.7987	12.6547	0.311464	0.2209
12.7991	12.6552	0.311914	0.218956
12.7996	12.6557	0.312581	0.217455
12.8001	12.6562	0.312722	0.215449
12.8006	12.6566	0.312727	0.21748
12.801	12.6571	0.315114	0.218066
12.8015	12.6576	0.313046	0.21616
12.802	12.6581	0.313124	0.215205
12.8024	12.6585	0.314288	0.215394
12.8029	12.659	0.312724	0.216788
12.8034	12.6595	0.313443	0.218299
12.8039	12.6599	0.313845	0.219079
12.8043	12.6604	0.312209	0.218736
12.8048	12.6609	0.313161	0.219281
12.8053	12.6614	0.31393	0.222572
12.8057	12.6618	0.314244	0.22538
12.8062	12.6623	0.313477	0.224873
12.8067	12.6627	0.31389	0.226224
12.8072	12.6632	0.315066	0.228767
12.8076	12.6637	0.315441	0.231174
12.8081	12.6641	0.31454	0.234844
12.8086	12.6646	0.314963	0.235141
12.8091	12.6651	0.314233	0.234799
12.8095	12.6656	0.31396	0.236259
12.81	12.6661	0.315651	0.240916
12.8105	12.6665	0.314951	0.243635
12.8109	12.667	0.314355	0.242457
12.8114	12.6675	0.31423	0.242973
12.8119	12.668	0.315116	0.246897
12.8124	12.6684	0.312892	0.246565
12.8128	12.6689	0.314274	0.252113
12.8133	12.6693	0.317521	0.255206
12.8138	12.6698	0.31481	0.254492
12.8142	12.6703	0.315702	0.256154
12.8147	12.6707	0.315518	0.2602
12.8152	12.6712	0.318023	0.263134
12.8157	12.6717	0.315648	0.263671
12.8161	12.6722	0.316003	0.262997
12.8166	12.6726	0.315712	0.264423
12.8171	12.6731	0.31398	0.26595
12.8176	12.6736	0.314838	0.269248
12.818	12.674	0.314234	0.268556
12.8185	12.6745	0.314515	0.267236
12.819	12.675	0.314999	0.269917
12.8194	12.6755	0.316583	0.271094
12.8199	12.676	0.316648	0.274226
12.8204	12.6764	0.315706	0.272153
12.8209	12.6769	0.315047	0.273703
12.8213	12.6774	0.318226	0.272898
12.8218	12.6779	0.315958	0.273125
12.8223	12.6784	0.313872	0.273553
12.8227	12.6788	0.317078	0.273077
12.8232	12.6793	0.315219	0.270105
12.8237	12.6797	0.316755	0.269097
12.8242	12.6802	0.314739	0.26799
12.8246	12.6807	0.316193	0.26722
12.8251	12.6812	0.316545	0.264814
12.8256	12.6817	0.315228	0.259879
12.8261	12.6821	0.316644	0.258434
12.8265	12.6826	0.315381	0.257302
12.827	12.683	0.314117	0.254853
12.8275	12.6835	0.316133	0.253796
12.8279	12.684	0.316135	0.249373
12.8284	12.6845	0.316093	0.247769
12.8289	12.6849	0.315436	0.245138
12.8294	12.6854	0.314976	0.244878
12.8298	12.6859	0.316072	0.240011
12.8303	12.6864	0.316014	0.235555
12.8308	12.6869	0.316843	0.231578
12.8312	12.6873	0.314417	0.227723
12.8317	12.6878	0.314933	0.227277
12.8322	12.6883	0.315965	0.224389
12.8327	12.6887	0.316558	0.219212
12.8331	12.6892	0.317726	0.21871
12.8336	12.6897	0.31694	0.219578
12.8341	12.6901	0.318651	0.221239
12.8346	12.6906	0.316794	0.219537
12.835	12.6911	0.317682	0.220497
12.8355	12.6916	0.319019	0.226053
12.836	12.692	0.317244	0.228665
12.8364	12.6925	0.315046	0.232193
12.8369	12.6929	0.316907	0.236739
12.8374	12.6934	0.316818	0.239575
12.8379	12.6939	0.314062	0.243111
12.8383	12.6944	0.315228	0.250162
12.8388	12.6948	0.315861	0.253261
12.8393	12.6953	0.315944	0.254178
12.8397	12.6958	0.315299	0.254958
12.8402	12.6963	0.317672	0.257302
12.8407	12.6967	0.315873	0.257765
12.8412	12.6972	0.315871	0.256818
12.8416	12.6977	0.317612	0.255771
12.8421	12.6982	0.316589	0.251925
12.8426	12.6986	0.316184	0.248549
12.8431	12.6991	0.313977	0.246774
12.8435	12.6995	0.314816	0.243868
12.844	12.7	0.313618	0.237577
12.8445	12.7005	0.315312	0.233812
12.8449	12.701	0.315145	0.231449
12.8454	12.7014	0.316158	0.227991
12.8459	12.7019	0.312136	0.225619
12.8464	12.7024	0.315239	0.224763
12.8468	12.7028	0.315942	0.221547
12.8473	12.7033	0.318419	0.223637
12.8478	12.7038	0.320267	0.227025
12.8482	12.7043	0.317321	0.228983
12.8487	12.7047	0.316465	0.230972
12.8492	12.7052	0.315488	0.235293
12.8497	12.7057	0.316642	0.245189
12.8501	12.7062	0.316608	0.252518
12.8506	12.7067	0.315073	0.26035
12.8511	12.7071	0.315342	0.270478
12.8516	12.7076	0.317946	0.283447
12.852	12.7081	0.315545	0.29359
12.8525	12.7086	0.317108	0.307263
12.853	12.709	0.315452	0.322171
12.8534	12.7095	0.31656	0.332805
12.8539	12.71	0.318263	0.347729
12.8544	12.7104	0.318551	0.362616
12.8549	12.7109	0.319018	0.376158
12.8553	12.7114	0.316943	0.388569
12.8558	12.7119	0.319184	0.398774
12.8563	12.7123	0.320162	0.409426
12.8567	12.7128	0.318956	0.418057
12.8572	12.7133	0.318693	0.429198
12.8577	12.7137	0.317586	0.439963
12.8582	12.7142	0.316969	0.444268
12.8586	12.7147	0.319849	0.452488
12.8591	12.7152	0.319016	0.460009
12.8596	12.7156	0.319406	0.470674
12.8601	12.7161	0.317313	0.479066
12.8605	12.7166	0.318429	0.486861
12.861	12.7171	0.320396	0.496389
12.8615	12.7176	0.318599	0.503181
12.8619	12.718	0.318442	0.50648
12.8624	12.7185	0.319644	0.510355
12.8629	12.719	0.318623	0.505178
12.8634	12.7194	0.321065	0.503277
12.8638	12.7199	0.319081	0.499622
12.8643	12.7203	0.320101	0.498006
12.8648	12.7208	0.318213	0.495512
12.8652	12.7213	0.319165	0.495902
12.8657	12.7218	0.320743	0.505471
12.8662	12.7222	0.316753	0.513202
12.8667	12.7227	0.318916	0.540724
12.8671	12.7231	0.319185	0.575129
12.8676	12.7236	0.317796	0.612865
12.8681	12.7241	0.316279	0.659066
12.8686	12.7246	0.317531	0.715431
12.869	12.725	0.315618	0.761966
12.8695	12.7255	0.31518	0.802554
12.87	12.726	0.31676	0.840686
12.8704	12.7265	0.319526	0.867052
12.8709	12.7269	0.317115	0.882696
12.8714	12.7274	0.320155	0.900117
12.8719	12.7279	0.31971	0.91512
12.8723	12.7284	0.319001	0.916946
12.8728	12.7288	0.319239	0.925711
12.8733	12.7293	0.320336	0.934004
12.8737	12.7298	0.319944	0.93778
12.8742	12.7302	0.318488	0.940956
12.8747	12.7307	0.320085	0.948279
12.8752	12.7312	0.324571	0.954818
12.8756	12.7317	0.31967	0.950565
12.8761	12.7321	0.321672	0.957499
12.8766	12.7326	0.323258	0.963779
12.8771	12.7331	0.322717	0.961286
12.8775	12.7335	0.321293	0.961853
12.878	12.734	0.323085	0.970439
12.8785	12.7345	0.323003	0.970277
12.8789	12.735	0.320897	0.965819
12.8794	12.7355	0.321748	0.969273
12.8799	12.7359	0.324546	0.974936
12.8804	12.7364	0.323624	0.971178
12.8808	12.7369	0.321461	0.973238
12.8813	12.7374	0.323266	0.976608
12.8818	12.7379	0.3239	0.974439
12.8822	12.7383	0.324337	0.978034
12.8827	12.7388	0.325664	0.981608
12.8832	12.7393	0.324106	0.97986
12.8837	12.7397	0.325482	0.985484
12.8841	12.7402	0.327145	0.987134
12.8846	12.7407	0.327089	0.987241
12.8851	12.7412	0.326914	0.986867
12.8856	12.7416	0.325688	0.988778
12.886	12.7421	0.325338	0.989068
12.8865	12.7426	0.324689	0.987432
12.887	12.743	0.32545	0.987617
12.8874	12.7435	0.324262	0.98801
12.8879	12.744	0.324184	0.986572
12.8884	12.7444	0.324143	0.9858
12.8889	12.7449	0.326166	0.99239
12.8893	12.7454	0.329057	0.995915
12.8898	12.7459	0.325301	0.993952
12.8903	12.7463	0.327066	0.995187
12.8907	12.7468	0.328919	1.00109
12.8912	12.7473	0.327236	0.996798
12.8917	12.7478	0.330127	0.998641
12.8922	12.7482	0.329519	1.00348
12.8926	12.7487	0.328841	1.00073
12.8931	12.7492	0.326485	0.996609
12.8936	12.7496	0.327899	0.998921
12.8941	12.7501	0.328906	0.998733
12.8945	12.7506	0.326667	0.999086
12.895	12.751	0.327844	1.00059
12.8955	12.7515	0.327783	1.0046
12.8959	12.752	0.327202	0.998642
12.8964	12.7525	0.329269	1.00274
12.8969	12.7529	0.330005	1.00391
12.8974	12.7534	0.329045	1.00174
12.8978	12.7538	0.32808	1.0004
12.8983	12.7543	0.329175	1.00172
12.8988	12.7548	0.332372	1.00575
