# 1304     AichiSR QXAFS
# Start     : 8.9544
# End       : 9.0544
# Dir       : Forward
# Points    : 300
# ScanTime  : 1.01549
# Date      : 13.04.23 22:23
# Ring Cur. : 25.5[mA]
12.7557	12.7557	0.400908	1.21953
12.7562	12.7552	0.400821	1.21902
12.7566	12.7548	0.401649	1.22315
12.7571	12.7543	0.399357	1.22176
12.7576	12.7538	0.401106	1.21887
12.7581	12.7533	0.400517	1.21694
12.7585	12.7529	0.400748	1.22047
12.759	12.7524	0.400206	1.22142
12.7595	12.752	0.399076	1.2196
12.7599	12.7515	0.399959	1.21722
12.7604	12.751	0.400971	1.21645
12.7609	12.7505	0.39959	1.21609
12.7614	12.7501	0.400156	1.21943
12.7618	12.7496	0.399627	1.21907
12.7623	12.7491	0.399855	1.21499
12.7628	12.7487	0.398124	1.21544
12.7632	12.7482	0.400831	1.21572
12.7637	12.7478	0.400928	1.22016
12.7642	12.7473	0.398163	1.21875
12.7647	12.7468	0.398745	1.21256
12.7651	12.7463	0.399838	1.21312
12.7656	12.7458	0.398147	1.21197
12.7661	12.7454	0.399033	1.21278
12.7666	12.7449	0.398382	1.21322
12.767	12.7444	0.398685	1.21137
12.7675	12.7439	0.399454	1.21044
12.768	12.7435	0.399574	1.20979
12.7684	12.743	0.398877	1.21375
12.7689	12.7425	0.397502	1.21068
12.7694	12.7421	0.399483	1.20643
12.7699	12.7416	0.39792	1.20375
12.7703	12.7411	0.399531	1.20535
12.7708	12.7407	0.398852	1.20794
12.7713	12.7402	0.39709	1.20941
12.7717	12.7397	0.397407	1.20342
12.7722	12.7392	0.399625	1.19979
12.7727	12.7388	0.397359	1.20346
12.7732	12.7383	0.39837	1.20396
12.7736	12.7378	0.395595	1.20147
12.7741	12.7374	0.397063	1.19773
12.7746	12.7369	0.398647	1.19651
12.7751	12.7364	0.395284	1.19699
12.7755	12.7359	0.396926	1.19709
12.776	12.7354	0.396233	1.19615
12.7765	12.735	0.39539	1.19333
12.7769	12.7345	0.397208	1.19041
12.7774	12.734	0.395951	1.18841
12.7779	12.7335	0.395786	1.18742
12.7784	12.7331	0.394739	1.18496
12.7788	12.7326	0.395004	1.18237
12.7793	12.7321	0.395296	1.17706
12.7798	12.7317	0.395625	1.1737
12.7802	12.7312	0.394853	1.17492
12.7807	12.7307	0.395393	1.17335
12.7812	12.7302	0.395445	1.16532
12.7817	12.7297	0.394508	1.15999
12.7821	12.7293	0.394244	1.1594
12.7826	12.7288	0.395084	1.1568
12.7831	12.7284	0.393914	1.14786
12.7836	12.7279	0.393494	1.13653
12.784	12.7274	0.395249	1.12975
12.7845	12.7269	0.393831	1.11684
12.785	12.7265	0.393134	1.10462
12.7854	12.726	0.390983	1.08017
12.7859	12.7255	0.389706	1.04648
12.7864	12.725	0.391296	1.01372
12.7869	12.7246	0.392776	0.980771
12.7873	12.7241	0.390768	0.918395
12.7878	12.7236	0.390165	0.855458
12.7883	12.7231	0.391056	0.792136
12.7887	12.7227	0.393422	0.736822
12.7892	12.7222	0.393132	0.689921
12.7897	12.7218	0.394393	0.653001
12.7902	12.7213	0.393458	0.631399
12.7906	12.7208	0.392316	0.616009
12.7911	12.7203	0.394493	0.608739
12.7916	12.7199	0.394976	0.610194
12.7921	12.7194	0.393881	0.612591
12.7925	12.7189	0.393296	0.617164
12.793	12.7185	0.391605	0.618335
12.7935	12.718	0.394459	0.622377
12.7939	12.7175	0.392546	0.625609
12.7944	12.7171	0.39328	0.62459
12.7949	12.7166	0.391698	0.617737
12.7954	12.7161	0.392352	0.604407
12.7958	12.7156	0.394483	0.596043
12.7963	12.7151	0.393061	0.587248
12.7968	12.7147	0.393618	0.577267
12.7972	12.7142	0.393867	0.565022
12.7977	12.7137	0.394728	0.553758
12.7982	12.7132	0.394149	0.544428
12.7987	12.7128	0.394959	0.535163
12.7991	12.7123	0.394754	0.526677
12.7996	12.7119	0.394061	0.515256
12.8001	12.7114	0.392538	0.497344
12.8006	12.7109	0.3949	0.484627
12.801	12.7104	0.396338	0.473388
12.8015	12.7099	0.393727	0.458648
12.802	12.7095	0.393929	0.441547
12.8024	12.709	0.394678	0.422852
12.8029	12.7086	0.395947	0.407968
12.8034	12.7081	0.396449	0.392768
12.8039	12.7076	0.39458	0.375668
12.8043	12.7071	0.394825	0.361247
12.8048	12.7066	0.394676	0.34426
12.8053	12.7062	0.394999	0.331111
12.8057	12.7057	0.395492	0.320565
12.8062	12.7052	0.396898	0.311335
12.8067	12.7047	0.395849	0.300921
12.8072	12.7042	0.39544	0.29101
12.8076	12.7038	0.395436	0.286241
12.8081	12.7033	0.395559	0.282787
12.8086	12.7028	0.396469	0.281
12.8091	12.7024	0.396329	0.277253
12.8095	12.7019	0.39475	0.277419
12.81	12.7014	0.396327	0.280652
12.8105	12.7009	0.397578	0.284095
12.8109	12.7005	0.396466	0.28886
12.8114	12.7	0.395963	0.292913
12.8119	12.6995	0.397558	0.296164
12.8124	12.6991	0.397576	0.300513
12.8128	12.6986	0.397933	0.304905
12.8133	12.6982	0.395331	0.311295
12.8138	12.6977	0.396442	0.314583
12.8142	12.6972	0.395895	0.315617
12.8147	12.6967	0.397566	0.31899
12.8152	12.6963	0.397868	0.322247
12.8157	12.6958	0.396625	0.322827
12.8161	12.6953	0.396061	0.321499
12.8166	12.6948	0.395219	0.317503
12.8171	12.6943	0.398644	0.317484
12.8176	12.6939	0.396641	0.31607
12.818	12.6934	0.39652	0.310809
12.8185	12.6929	0.395725	0.305082
12.819	12.6925	0.396549	0.299005
12.8194	12.692	0.39725	0.29157
12.8199	12.6916	0.397095	0.288684
12.8204	12.6911	0.396001	0.284599
12.8209	12.6906	0.396169	0.278932
12.8213	12.6901	0.396866	0.275114
12.8218	12.6897	0.397318	0.273324
12.8223	12.6892	0.396535	0.272478
12.8227	12.6887	0.395868	0.273901
12.8232	12.6883	0.396439	0.276055
12.8237	12.6878	0.396126	0.275532
12.8242	12.6873	0.395681	0.279551
12.8246	12.6868	0.396493	0.284308
12.8251	12.6864	0.39537	0.288911
12.8256	12.6859	0.395149	0.292883
12.8261	12.6854	0.395003	0.295738
12.8265	12.6849	0.395617	0.298973
12.827	12.6844	0.394636	0.305076
12.8275	12.684	0.394422	0.308246
12.8279	12.6835	0.394245	0.310222
12.8284	12.683	0.39449	0.312812
12.8289	12.6826	0.39477	0.315258
12.8294	12.6821	0.394079	0.320118
12.8298	12.6816	0.393991	0.323786
12.8303	12.6812	0.394957	0.326557
12.8308	12.6807	0.395845	0.328535
12.8312	12.6802	0.396062	0.33133
12.8317	12.6797	0.396878	0.334187
12.8322	12.6793	0.395936	0.339141
12.8327	12.6788	0.398973	0.338463
12.8331	12.6783	0.397063	0.340207
12.8336	12.6779	0.397856	0.340196
12.8341	12.6774	0.398902	0.343283
12.8346	12.6769	0.395702	0.342914
12.835	12.6764	0.396283	0.343017
12.8355	12.6759	0.397612	0.342617
12.836	12.6755	0.398068	0.342126
12.8364	12.675	0.398183	0.341332
12.8369	12.6745	0.39659	0.339564
12.8374	12.674	0.396688	0.339129
12.8379	12.6735	0.394943	0.33658
12.8383	12.6731	0.396261	0.336236
12.8388	12.6726	0.39733	0.336159
12.8393	12.6722	0.396142	0.334892
12.8397	12.6717	0.395998	0.330588
12.8402	12.6712	0.397625	0.328309
12.8407	12.6707	0.397493	0.329343
12.8412	12.6703	0.396864	0.326694
12.8416	12.6698	0.39647	0.325444
12.8421	12.6693	0.398064	0.32252
12.8426	12.6689	0.395763	0.318018
12.8431	12.6684	0.397953	0.315901
12.8435	12.6679	0.397886	0.316662
12.844	12.6675	0.395016	0.312279
12.8445	12.667	0.396767	0.307767
12.8449	12.6665	0.396763	0.305377
12.8454	12.666	0.396867	0.303253
12.8459	12.6656	0.396667	0.301907
12.8464	12.6651	0.395754	0.300648
12.8468	12.6646	0.396357	0.297729
12.8473	12.6641	0.3981	0.292968
12.8478	12.6637	0.397033	0.29177
12.8482	12.6632	0.397111	0.292968
12.8487	12.6627	0.395818	0.289622
12.8492	12.6623	0.395896	0.286628
12.8497	12.6618	0.394832	0.283715
12.8501	12.6613	0.396605	0.281686
12.8506	12.6609	0.39473	0.281423
12.8511	12.6604	0.394466	0.279811
12.8516	12.6599	0.394659	0.276627
12.852	12.6595	0.395687	0.275174
12.8525	12.659	0.395743	0.272909
12.853	12.6585	0.395354	0.273691
12.8534	12.6581	0.393326	0.271811
12.8539	12.6576	0.393873	0.27109
12.8544	12.6571	0.395463	0.269082
12.8549	12.6566	0.395206	0.270819
12.8553	12.6561	0.396664	0.273035
12.8558	12.6557	0.392825	0.272847
12.8563	12.6552	0.393659	0.273794
12.8567	12.6547	0.394138	0.274046
12.8572	12.6542	0.395197	0.276211
12.8577	12.6537	0.395306	0.279536
12.8582	12.6533	0.393747	0.279918
12.8586	12.6528	0.394195	0.281543
12.8591	12.6524	0.394256	0.2838
12.8596	12.6519	0.394663	0.285902
12.8601	12.6514	0.394303	0.289457
12.8605	12.6509	0.393435	0.291562
12.861	12.6505	0.393802	0.294147
12.8615	12.65	0.394782	0.296128
12.8619	12.6495	0.394661	0.298157
12.8624	12.649	0.39402	0.303282
12.8629	12.6486	0.392756	0.304301
12.8634	12.6481	0.39414	0.304508
12.8638	12.6476	0.392751	0.30558
12.8643	12.6471	0.392442	0.308689
12.8648	12.6467	0.392274	0.311491
12.8652	12.6462	0.389582	0.311137
12.8657	12.6457	0.390712	0.310518
12.8662	12.6452	0.387915	0.310308
12.8667	12.6448	0.389634	0.313291
12.8671	12.6443	0.3912	0.316479
12.8676	12.6438	0.390796	0.31725
12.8681	12.6433	0.390766	0.31725
12.8686	12.6429	0.391395	0.31628
12.869	12.6424	0.393477	0.319051
12.8695	12.642	0.393386	0.320736
12.87	12.6415	0.391801	0.321245
12.8704	12.641	0.392749	0.320029
12.8709	12.6405	0.392638	0.319701
12.8714	12.6401	0.39177	0.318597
12.8719	12.6396	0.392143	0.320724
12.8723	12.6391	0.393754	0.319353
12.8728	12.6387	0.391006	0.316837
12.8733	12.6382	0.392254	0.316673
12.8737	12.6377	0.392294	0.317323
12.8742	12.6373	0.39177	0.318726
12.8747	12.6368	0.392028	0.316866
12.8752	12.6363	0.392075	0.313734
12.8756	12.6358	0.390968	0.314451
12.8761	12.6354	0.391501	0.312403
12.8766	12.6349	0.391319	0.31435
12.8771	12.6344	0.391266	0.313208
12.8775	12.6339	0.39102	0.310841
12.878	12.6335	0.391824	0.31128
12.8785	12.633	0.391713	0.311524
12.8789	12.6325	0.391559	0.312381
12.8794	12.6321	0.390347	0.311893
12.8799	12.6316	0.390264	0.310933
12.8804	12.6311	0.391146	0.310757
12.8808	12.6306	0.391885	0.310649
12.8813	12.6302	0.38962	0.312956
12.8818	12.6297	0.389981	0.31302
12.8822	12.6292	0.389535	0.311342
12.8827	12.6288	0.391895	0.312307
12.8832	12.6283	0.393068	0.312706
12.8837	12.6278	0.390446	0.313129
12.8841	12.6274	0.390761	0.313792
12.8846	12.6269	0.391173	0.311647
12.8851	12.6264	0.390658	0.311224
12.8856	12.6259	0.389807	0.311023
12.886	12.6254	0.389932	0.311034
12.8865	12.625	0.388987	0.309883
12.887	12.6245	0.388314	0.306957
12.8874	12.624	0.391297	0.306565
12.8879	12.6235	0.389603	0.306864
12.8884	12.6231	0.39009	0.307392
12.8889	12.6226	0.390039	0.305204
12.8893	12.6221	0.389672	0.304439
12.8898	12.6217	0.390201	0.303108
12.8903	12.6212	0.39022	0.303708
12.8907	12.6207	0.388838	0.304689
12.8912	12.6202	0.388461	0.30278
12.8917	12.6197	0.387404	0.301688
12.8922	12.6193	0.389896	0.300755
12.8926	12.6188	0.388505	0.301134
12.8931	12.6184	0.38935	0.303414
12.8936	12.6179	0.388909	0.302206
12.8941	12.6174	0.387646	0.300319
12.8945	12.6169	0.389462	0.299909
12.895	12.6165	0.387962	0.301908
12.8955	12.616	0.388484	0.302757
12.8959	12.6155	0.386262	0.303298
12.8964	12.615	0.387261	0.300697
12.8969	12.6145	0.389653	0.301296
12.8974	12.6141	0.388935	0.300331
12.8978	12.6136	0.387447	0.299294
12.8983	12.6131	0.387223	0.29941
12.8988	12.6127	0.38695	0.29794
