# 1304     AichiSR QXAFS
# Start     : 8.9544
# End       : 9.0544
# Dir       : Backward
# Points    : 300
# ScanTime  : 1.01549
# Date      : 13.04.23 22:20
# Ring Cur. : 25.5[mA]
12.7557	12.6117	0.301128	0.231282
12.7562	12.6122	0.299975	0.229302
12.7566	12.6126	0.300824	0.229983
12.7571	12.6131	0.303547	0.232266
12.7576	12.6136	0.300665	0.232428
12.7581	12.614	0.301062	0.235034
12.7585	12.6145	0.30418	0.234603
12.759	12.615	0.302537	0.234305
12.7595	12.6155	0.30408	0.23571
12.7599	12.616	0.305264	0.238477
12.7604	12.6164	0.304053	0.238342
12.7609	12.6169	0.304447	0.237985
12.7614	12.6174	0.303567	0.236275
12.7618	12.6179	0.306851	0.237648
12.7623	12.6183	0.303329	0.236791
12.7628	12.6188	0.304215	0.238391
12.7632	12.6193	0.304936	0.237783
12.7637	12.6197	0.302481	0.235148
12.7642	12.6202	0.303669	0.236127
12.7647	12.6207	0.304258	0.238253
12.7651	12.6212	0.303954	0.238127
12.7656	12.6216	0.302934	0.237352
12.7661	12.6221	0.306035	0.238641
12.7666	12.6226	0.306294	0.238244
12.767	12.623	0.306655	0.240074
12.7675	12.6235	0.306039	0.2416
12.768	12.624	0.306012	0.241503
12.7684	12.6245	0.305757	0.240084
12.7689	12.6249	0.304123	0.240452
12.7694	12.6254	0.305436	0.244017
12.7699	12.6259	0.303874	0.244212
12.7703	12.6264	0.30322	0.242528
12.7708	12.6269	0.30338	0.242049
12.7713	12.6273	0.306111	0.245744
12.7717	12.6278	0.306113	0.245318
12.7722	12.6283	0.304151	0.245236
12.7727	12.6288	0.304666	0.245324
12.7732	12.6292	0.306726	0.245474
12.7736	12.6297	0.306122	0.245718
12.7741	12.6301	0.306492	0.246744
12.7746	12.6306	0.305953	0.247005
12.7751	12.6311	0.305723	0.244721
12.7755	12.6316	0.308449	0.243939
12.776	12.632	0.307995	0.244424
12.7765	12.6325	0.306654	0.245329
12.7769	12.633	0.304814	0.244936
12.7774	12.6334	0.306743	0.243781
12.7779	12.6339	0.307188	0.24402
12.7784	12.6344	0.307185	0.244279
12.7788	12.6348	0.30818	0.24702
12.7793	12.6353	0.305987	0.247512
12.7798	12.6358	0.306687	0.245724
12.7802	12.6363	0.309053	0.247027
12.7807	12.6368	0.309221	0.247614
12.7812	12.6372	0.307279	0.248327
12.7817	12.6377	0.307837	0.251229
12.7821	12.6382	0.30879	0.249679
12.7826	12.6386	0.308252	0.248719
12.7831	12.6391	0.307865	0.25003
12.7836	12.6396	0.308716	0.252465
12.784	12.64	0.306961	0.252122
12.7845	12.6405	0.306062	0.248937
12.785	12.641	0.310185	0.251391
12.7854	12.6415	0.307735	0.25237
12.7859	12.6419	0.30762	0.251731
12.7864	12.6424	0.307825	0.253455
12.7869	12.6428	0.307796	0.252578
12.7873	12.6433	0.308672	0.249378
12.7878	12.6438	0.308274	0.251198
12.7883	12.6442	0.308071	0.251483
12.7887	12.6447	0.307245	0.249736
12.7892	12.6452	0.305528	0.246475
12.7897	12.6457	0.307772	0.246727
12.7902	12.6462	0.30741	0.246732
12.7906	12.6466	0.308033	0.246529
12.7911	12.6471	0.306675	0.243994
12.7916	12.6476	0.307547	0.242931
12.7921	12.6481	0.309351	0.241648
12.7925	12.6486	0.308891	0.241496
12.793	12.649	0.309878	0.241774
12.7935	12.6495	0.308781	0.240344
12.7939	12.65	0.307922	0.235678
12.7944	12.6504	0.311224	0.234668
12.7949	12.6509	0.312255	0.234628
12.7954	12.6514	0.311693	0.232438
12.7958	12.6519	0.311194	0.231336
12.7963	12.6523	0.312543	0.227669
12.7968	12.6528	0.311775	0.22485
12.7972	12.6533	0.310744	0.223361
12.7977	12.6537	0.311447	0.22495
12.7982	12.6542	0.310579	0.222508
12.7987	12.6547	0.308969	0.218882
12.7991	12.6552	0.312383	0.217573
12.7996	12.6556	0.313358	0.218169
12.8001	12.6561	0.312139	0.217374
12.8006	12.6566	0.311412	0.216144
12.801	12.6571	0.312623	0.215342
12.8015	12.6576	0.314473	0.214497
12.802	12.658	0.312512	0.215377
12.8024	12.6585	0.312467	0.217077
12.8029	12.659	0.311199	0.21771
12.8034	12.6594	0.311703	0.214883
12.8039	12.6599	0.312643	0.21631
12.8043	12.6604	0.312523	0.219175
12.8048	12.6608	0.312052	0.220923
12.8053	12.6613	0.31286	0.223296
12.8057	12.6618	0.312176	0.221203
12.8062	12.6623	0.31339	0.223089
12.8067	12.6627	0.312638	0.225249
12.8072	12.6632	0.313937	0.229612
12.8076	12.6636	0.312837	0.22971
12.8081	12.6641	0.312642	0.23023
12.8086	12.6646	0.315101	0.233148
12.8091	12.6651	0.315605	0.235858
12.8095	12.6655	0.312636	0.236323
12.81	12.666	0.313501	0.239965
12.8105	12.6665	0.315818	0.241566
12.8109	12.667	0.314899	0.240611
12.8114	12.6674	0.313742	0.243038
12.8119	12.6679	0.314739	0.248655
12.8124	12.6684	0.312939	0.248742
12.8128	12.6689	0.313572	0.24983
12.8133	12.6693	0.316809	0.251624
12.8138	12.6698	0.314478	0.2545
12.8142	12.6702	0.313215	0.257518
12.8147	12.6707	0.313848	0.260314
12.8152	12.6712	0.316159	0.260177
12.8157	12.6717	0.315532	0.261065
12.8161	12.6721	0.315572	0.263412
12.8166	12.6726	0.3155	0.266377
12.8171	12.6731	0.315389	0.265897
12.8176	12.6735	0.314669	0.266421
12.818	12.674	0.317717	0.267192
12.8185	12.6745	0.315704	0.269606
12.819	12.675	0.31468	0.268895
12.8194	12.6754	0.313686	0.271238
12.8199	12.6759	0.316224	0.271679
12.8204	12.6764	0.317125	0.270785
12.8209	12.6769	0.31452	0.272225
12.8213	12.6774	0.314994	0.274512
12.8218	12.6778	0.316578	0.274946
12.8223	12.6783	0.31325	0.270286
12.8227	12.6788	0.318369	0.271402
12.8232	12.6792	0.318441	0.272613
12.8237	12.6797	0.314969	0.271957
12.8242	12.6802	0.315619	0.269015
12.8246	12.6807	0.315751	0.266689
12.8251	12.6811	0.318167	0.265687
12.8256	12.6816	0.315236	0.261253
12.8261	12.6821	0.314989	0.260633
12.8265	12.6825	0.315747	0.257609
12.827	12.683	0.313765	0.253002
12.8275	12.6835	0.315747	0.252784
12.8279	12.6839	0.316136	0.251374
12.8284	12.6844	0.316965	0.247838
12.8289	12.6849	0.315399	0.245355
12.8294	12.6854	0.315661	0.242743
12.8298	12.6859	0.316764	0.239632
12.8303	12.6863	0.31575	0.237098
12.8308	12.6868	0.317986	0.235757
12.8312	12.6873	0.315703	0.230223
12.8317	12.6878	0.314669	0.225797
12.8322	12.6883	0.318364	0.224483
12.8327	12.6887	0.318035	0.222231
12.8331	12.6892	0.315816	0.220416
12.8336	12.6896	0.316337	0.218786
12.8341	12.6901	0.316819	0.217349
12.8346	12.6906	0.318036	0.218415
12.835	12.6911	0.316993	0.222027
12.8355	12.6915	0.315442	0.224622
12.836	12.692	0.315925	0.228803
12.8364	12.6925	0.315469	0.230445
12.8369	12.6929	0.319215	0.236294
12.8374	12.6934	0.316965	0.242904
12.8379	12.6938	0.316471	0.246169
12.8383	12.6943	0.317101	0.248702
12.8388	12.6948	0.316833	0.251322
12.8393	12.6953	0.318272	0.254975
12.8397	12.6957	0.316403	0.256862
12.8402	12.6962	0.317302	0.259376
12.8407	12.6967	0.316159	0.257004
12.8412	12.6972	0.314999	0.255338
12.8416	12.6977	0.317367	0.254701
12.8421	12.6981	0.317834	0.254352
12.8426	12.6986	0.314364	0.250671
12.8431	12.699	0.314687	0.246841
12.8435	12.6995	0.315406	0.243439
12.844	12.7	0.315796	0.240166
12.8445	12.7004	0.316347	0.236858
12.8449	12.7009	0.315009	0.233725
12.8454	12.7014	0.31561	0.229834
12.8459	12.7019	0.314592	0.225272
12.8464	12.7023	0.315556	0.223679
12.8468	12.7028	0.315577	0.224363
12.8473	12.7033	0.315931	0.223173
12.8478	12.7037	0.314776	0.22327
12.8482	12.7042	0.316073	0.225285
12.8487	12.7047	0.315677	0.229796
12.8492	12.7052	0.316601	0.237275
12.8497	12.7057	0.317445	0.245319
12.8501	12.7062	0.316159	0.250744
12.8506	12.7066	0.313727	0.257641
12.8511	12.7071	0.318999	0.27208
12.8516	12.7076	0.317275	0.284929
12.852	12.7081	0.316298	0.294618
12.8525	12.7085	0.315163	0.30582
12.853	12.709	0.317797	0.319192
12.8534	12.7095	0.317419	0.331688
12.8539	12.7099	0.317429	0.346867
12.8544	12.7104	0.318158	0.362144
12.8549	12.7109	0.317175	0.372201
12.8553	12.7114	0.316575	0.381489
12.8558	12.7118	0.321564	0.399864
12.8563	12.7123	0.320716	0.411224
12.8567	12.7128	0.318313	0.420204
12.8572	12.7132	0.318114	0.426118
12.8577	12.7137	0.316812	0.434236
12.8582	12.7142	0.319383	0.440688
12.8586	12.7146	0.316984	0.452
12.8591	12.7151	0.317629	0.460071
12.8596	12.7156	0.317526	0.465674
12.8601	12.7161	0.316918	0.473666
12.8605	12.7166	0.318323	0.484349
12.861	12.717	0.316629	0.491204
12.8615	12.7175	0.315655	0.499584
12.8619	12.718	0.315772	0.502168
12.8624	12.7185	0.317236	0.503605
12.8629	12.7189	0.316373	0.500715
12.8634	12.7194	0.317193	0.500644
12.8638	12.7198	0.318074	0.498685
12.8643	12.7203	0.315238	0.490987
12.8648	12.7208	0.316381	0.488795
12.8652	12.7213	0.318533	0.491562
12.8657	12.7217	0.318671	0.501925
12.8662	12.7222	0.315571	0.514017
12.8667	12.7227	0.317099	0.531844
12.8671	12.7231	0.314907	0.563219
12.8676	12.7236	0.314558	0.600613
12.8681	12.7241	0.314144	0.650061
12.8686	12.7245	0.312997	0.701739
12.869	12.725	0.313079	0.748938
12.8695	12.7255	0.312562	0.788834
12.87	12.726	0.315777	0.82511
12.8704	12.7264	0.317422	0.857147
12.8709	12.7269	0.316295	0.881001
12.8714	12.7274	0.316671	0.89308
12.8719	12.7279	0.319418	0.910359
12.8723	12.7283	0.319048	0.913584
12.8728	12.7288	0.317589	0.920677
12.8733	12.7293	0.319975	0.934385
12.8737	12.7297	0.318181	0.933509
12.8742	12.7302	0.317141	0.933544
12.8747	12.7307	0.319215	0.938835
12.8752	12.7312	0.321092	0.950559
12.8756	12.7316	0.31755	0.945916
12.8761	12.7321	0.320011	0.951237
12.8766	12.7326	0.32142	0.958649
12.8771	12.733	0.320856	0.956768
12.8775	12.7335	0.320403	0.95507
12.878	12.734	0.320405	0.966517
12.8785	12.7345	0.322285	0.964782
12.8789	12.7349	0.319491	0.963577
12.8794	12.7354	0.323422	0.968124
12.8799	12.7359	0.322389	0.969635
12.8804	12.7364	0.320902	0.968885
12.8808	12.7369	0.321711	0.966926
12.8813	12.7374	0.323269	0.972577
12.8818	12.7378	0.321637	0.969764
12.8822	12.7383	0.322539	0.972551
12.8827	12.7388	0.322177	0.977195
12.8832	12.7392	0.323593	0.976358
12.8837	12.7397	0.323283	0.975439
12.8841	12.7402	0.324517	0.980212
12.8846	12.7406	0.325439	0.986065
12.8851	12.7411	0.323058	0.984916
12.8856	12.7416	0.323858	0.983744
12.886	12.7421	0.325462	0.984829
12.8865	12.7425	0.323937	0.984996
12.887	12.743	0.324731	0.985426
12.8874	12.7435	0.324019	0.987578
12.8879	12.7439	0.32372	0.981121
12.8884	12.7444	0.323957	0.983984
12.8889	12.7449	0.326484	0.990195
12.8893	12.7454	0.325105	0.988227
12.8898	12.7458	0.323426	0.991502
12.8903	12.7463	0.325719	0.992808
12.8907	12.7468	0.326736	0.99664
12.8912	12.7473	0.326075	0.991967
12.8917	12.7477	0.327558	0.996747
12.8922	12.7482	0.326214	1.00181
12.8926	12.7487	0.327688	0.996935
12.8931	12.7491	0.327052	0.995335
12.8936	12.7496	0.328726	0.998935
12.8941	12.7501	0.326601	0.997837
12.8945	12.7505	0.325915	0.995175
12.895	12.751	0.32728	0.992963
12.8955	12.7515	0.328447	0.999382
12.8959	12.752	0.327864	0.996909
12.8964	12.7524	0.325958	0.997186
12.8969	12.7529	0.328357	1.00304
12.8974	12.7533	0.327701	1.00073
12.8978	12.7538	0.32803	0.997827
12.8983	12.7543	0.328459	1.00071
12.8988	12.7548	0.329369	1.00478
