# 1304     AichiSR QXAFS
# Start     : 8.9544
# End       : 9.0544
# Dir       : Backward
# Points    : 300
# ScanTime  : 1.01549
# Date      : 13.04.23 22:26
# Ring Cur. : 25.5[mA]
12.7557	12.6118	0.301509	0.227884
12.7562	12.6122	0.299648	0.228779
12.7566	12.6127	0.301925	0.233312
12.7571	12.6132	0.301826	0.234286
12.7576	12.6136	0.299458	0.230338
12.7581	12.6141	0.300778	0.230949
12.7585	12.6146	0.303058	0.23268
12.759	12.615	0.299864	0.233159
12.7595	12.6155	0.301317	0.235578
12.7599	12.616	0.300581	0.233966
12.7604	12.6165	0.301764	0.233146
12.7609	12.6169	0.300869	0.233332
12.7614	12.6174	0.302608	0.237956
12.7618	12.6179	0.302484	0.23683
12.7623	12.6184	0.300343	0.234197
12.7628	12.6188	0.302858	0.234934
12.7632	12.6193	0.30293	0.235962
12.7637	12.6198	0.302816	0.236782
12.7642	12.6202	0.30088	0.235743
12.7647	12.6207	0.301319	0.235361
12.7651	12.6212	0.303019	0.236097
12.7656	12.6217	0.299174	0.234617
12.7661	12.6221	0.302385	0.237448
12.7666	12.6226	0.300083	0.238012
12.767	12.6231	0.300582	0.235871
12.7675	12.6235	0.300883	0.235873
12.768	12.624	0.3021	0.238757
12.7684	12.6245	0.302229	0.239714
12.7689	12.625	0.299988	0.238909
12.7694	12.6255	0.30253	0.239507
12.7699	12.6259	0.303974	0.240308
12.7703	12.6264	0.300811	0.240861
12.7708	12.6269	0.301253	0.242021
12.7713	12.6274	0.302078	0.243201
12.7717	12.6278	0.300132	0.240393
12.7722	12.6283	0.304174	0.241004
12.7727	12.6288	0.301561	0.243111
12.7732	12.6293	0.301252	0.242603
12.7736	12.6297	0.301259	0.241286
12.7741	12.6302	0.302167	0.241265
12.7746	12.6307	0.303174	0.241073
12.7751	12.6311	0.299831	0.239791
12.7755	12.6316	0.302404	0.24341
12.776	12.6321	0.304172	0.24271
12.7765	12.6325	0.302839	0.241276
12.7769	12.633	0.302542	0.24053
12.7774	12.6335	0.30452	0.242727
12.7779	12.6339	0.301104	0.242656
12.7784	12.6344	0.303456	0.241928
12.7788	12.6349	0.303998	0.242066
12.7793	12.6354	0.303197	0.241942
12.7798	12.6358	0.301243	0.241747
12.7802	12.6363	0.30202	0.245235
12.7807	12.6368	0.302628	0.244556
12.7812	12.6373	0.300114	0.242488
12.7817	12.6377	0.302407	0.244486
12.7821	12.6382	0.303348	0.24596
12.7826	12.6387	0.302978	0.247039
12.7831	12.6391	0.303615	0.247427
12.7836	12.6396	0.305444	0.247394
12.784	12.6401	0.306076	0.250447
12.7845	12.6405	0.304353	0.249837
12.785	12.641	0.305882	0.251501
12.7854	12.6415	0.304683	0.248896
12.7859	12.642	0.301847	0.246385
12.7864	12.6424	0.305146	0.247909
12.7869	12.6429	0.303798	0.248039
12.7873	12.6433	0.300856	0.246489
12.7878	12.6438	0.302875	0.245806
12.7883	12.6443	0.303497	0.24613
12.7887	12.6448	0.304434	0.244917
12.7892	12.6452	0.30142	0.243923
12.7897	12.6457	0.302227	0.24564
12.7902	12.6462	0.302501	0.243234
12.7906	12.6467	0.302236	0.240766
12.7911	12.6472	0.305728	0.241783
12.7916	12.6477	0.304498	0.240953
12.7921	12.6481	0.30432	0.239603
12.7925	12.6486	0.303739	0.237613
12.793	12.6491	0.304551	0.234961
12.7935	12.6495	0.305807	0.235623
12.7939	12.65	0.304835	0.233798
12.7944	12.6505	0.304667	0.233108
12.7949	12.651	0.306893	0.230431
12.7954	12.6514	0.306439	0.227904
12.7958	12.6519	0.308669	0.227512
12.7963	12.6524	0.309912	0.228088
12.7968	12.6528	0.307741	0.22489
12.7972	12.6533	0.30742	0.221842
12.7977	12.6538	0.310769	0.221819
12.7982	12.6542	0.309906	0.220662
12.7987	12.6547	0.307557	0.218107
12.7991	12.6552	0.310089	0.217299
12.7996	12.6557	0.308669	0.215262
12.8001	12.6562	0.308181	0.213096
12.8006	12.6566	0.309317	0.213667
12.801	12.6571	0.312061	0.216009
12.8015	12.6576	0.307952	0.213222
12.802	12.6581	0.308506	0.213548
12.8024	12.6585	0.310708	0.213792
12.8029	12.659	0.312809	0.215209
12.8034	12.6595	0.311803	0.21706
12.8039	12.6599	0.311593	0.218794
12.8043	12.6604	0.311728	0.21894
12.8048	12.6609	0.311656	0.218553
12.8053	12.6614	0.313477	0.221098
12.8057	12.6618	0.31293	0.224455
12.8062	12.6623	0.309886	0.223554
12.8067	12.6627	0.312107	0.224809
12.8072	12.6632	0.314996	0.227319
12.8076	12.6637	0.313137	0.228224
12.8081	12.6641	0.313722	0.232238
12.8086	12.6646	0.314789	0.235657
12.8091	12.6651	0.314326	0.234871
12.8095	12.6656	0.313063	0.234108
12.81	12.6661	0.315669	0.239698
12.8105	12.6665	0.314902	0.241778
12.8109	12.667	0.311874	0.242233
12.8114	12.6675	0.314197	0.24504
12.8119	12.668	0.316254	0.246456
12.8124	12.6684	0.313229	0.246677
12.8128	12.6689	0.314433	0.250379
12.8133	12.6693	0.316013	0.254947
12.8138	12.6698	0.314277	0.25373
12.8142	12.6703	0.315366	0.255425
12.8147	12.6707	0.315691	0.258428
12.8152	12.6712	0.316892	0.262689
12.8157	12.6717	0.314022	0.261681
12.8161	12.6722	0.316706	0.264636
12.8166	12.6726	0.317074	0.265919
12.8171	12.6731	0.315713	0.266031
12.8176	12.6736	0.315641	0.267737
12.818	12.674	0.314814	0.270778
12.8185	12.6745	0.316292	0.270073
12.819	12.675	0.31699	0.270281
12.8194	12.6755	0.31629	0.271979
12.8199	12.676	0.317382	0.274178
12.8204	12.6764	0.315463	0.275671
12.8209	12.6769	0.31845	0.273821
12.8213	12.6774	0.317633	0.275359
12.8218	12.6779	0.317399	0.274186
12.8223	12.6784	0.316082	0.274596
12.8227	12.6788	0.316459	0.275052
12.8232	12.6793	0.317424	0.272749
12.8237	12.6797	0.319078	0.270677
12.8242	12.6802	0.316593	0.268506
12.8246	12.6807	0.318864	0.269027
12.8251	12.6812	0.317806	0.267101
12.8256	12.6817	0.318718	0.263037
12.8261	12.6821	0.319732	0.261621
12.8265	12.6826	0.317345	0.258385
12.827	12.683	0.316802	0.256658
12.8275	12.6835	0.317439	0.255308
12.8279	12.684	0.31982	0.252333
12.8284	12.6845	0.319647	0.249585
12.8289	12.6849	0.317963	0.247332
12.8294	12.6854	0.318046	0.245867
12.8298	12.6859	0.320388	0.243183
12.8303	12.6864	0.317643	0.23751
12.8308	12.6869	0.320995	0.235432
12.8312	12.6873	0.318351	0.230815
12.8317	12.6878	0.318033	0.229135
12.8322	12.6883	0.319463	0.226801
12.8327	12.6888	0.320835	0.222942
12.8331	12.6892	0.321368	0.221228
12.8336	12.6897	0.320614	0.220587
12.8341	12.6901	0.320454	0.222758
12.8346	12.6906	0.318628	0.221455
12.835	12.6911	0.319585	0.22296
12.8355	12.6916	0.322772	0.22773
12.836	12.692	0.321885	0.231533
12.8364	12.6925	0.318681	0.234883
12.8369	12.693	0.320505	0.240191
12.8374	12.6934	0.3205	0.244722
12.8379	12.6939	0.32116	0.247181
12.8383	12.6944	0.320958	0.252562
12.8388	12.6948	0.320633	0.257209
12.8393	12.6953	0.321327	0.257941
12.8397	12.6958	0.318637	0.258248
12.8402	12.6963	0.324442	0.260263
12.8407	12.6967	0.320282	0.261192
12.8412	12.6972	0.317757	0.260343
12.8416	12.6977	0.320855	0.260141
12.8421	12.6982	0.319994	0.256195
12.8426	12.6986	0.322662	0.252352
12.8431	12.6991	0.319887	0.249604
12.8435	12.6995	0.320738	0.248835
12.844	12.7	0.318862	0.241398
12.8445	12.7005	0.318395	0.238777
12.8449	12.701	0.32348	0.236281
12.8454	12.7015	0.320152	0.231518
12.8459	12.7019	0.317176	0.229116
12.8464	12.7024	0.318793	0.226487
12.8468	12.7028	0.320972	0.226759
12.8473	12.7033	0.320167	0.224548
12.8478	12.7038	0.321443	0.227852
12.8482	12.7043	0.321499	0.232463
12.8487	12.7047	0.320754	0.234804
12.8492	12.7052	0.321856	0.238566
12.8497	12.7057	0.32413	0.249377
12.8501	12.7062	0.323345	0.256429
12.8506	12.7067	0.31999	0.266002
12.8511	12.7071	0.320172	0.27607
12.8516	12.7076	0.321939	0.286547
12.852	12.7081	0.324625	0.298682
12.8525	12.7086	0.322465	0.312455
12.853	12.709	0.32293	0.32831
12.8534	12.7095	0.321931	0.339216
12.8539	12.71	0.322326	0.352646
12.8544	12.7104	0.326337	0.368084
12.8549	12.7109	0.323993	0.382424
12.8553	12.7114	0.323241	0.392193
12.8558	12.7119	0.322056	0.404332
12.8563	12.7123	0.322302	0.414107
12.8567	12.7128	0.325761	0.425207
12.8572	12.7133	0.322278	0.432385
12.8577	12.7137	0.322049	0.442905
12.8582	12.7142	0.321625	0.449978
12.8586	12.7147	0.321545	0.457845
12.8591	12.7152	0.324676	0.468703
12.8596	12.7156	0.324234	0.47612
12.8601	12.7161	0.323177	0.48644
12.8605	12.7166	0.322939	0.494269
12.861	12.7171	0.322654	0.501298
12.8615	12.7176	0.324824	0.508627
12.8619	12.718	0.322952	0.51346
12.8624	12.7185	0.322732	0.516338
12.8629	12.719	0.32084	0.510189
12.8634	12.7194	0.322332	0.504406
12.8638	12.7199	0.323958	0.505411
12.8643	12.7203	0.322186	0.500751
12.8648	12.7208	0.319	0.496963
12.8652	12.7213	0.319373	0.498034
12.8657	12.7218	0.321221	0.506141
12.8662	12.7222	0.320404	0.518643
12.8667	12.7227	0.321673	0.542231
12.8671	12.7232	0.321193	0.577894
12.8676	12.7236	0.319295	0.614822
12.8681	12.7241	0.318709	0.661392
12.8686	12.7246	0.321264	0.719278
12.869	12.725	0.318915	0.767353
12.8695	12.7255	0.316716	0.803057
12.87	12.726	0.318184	0.841831
12.8704	12.7265	0.319035	0.870215
12.8709	12.7269	0.319849	0.881946
12.8714	12.7274	0.320885	0.903401
12.8719	12.7279	0.319958	0.918935
12.8723	12.7284	0.319498	0.919201
12.8728	12.7288	0.318744	0.924562
12.8733	12.7293	0.324164	0.940387
12.8737	12.7298	0.323578	0.946784
12.8742	12.7302	0.319924	0.943533
12.8747	12.7307	0.321699	0.94795
12.8752	12.7312	0.322594	0.953411
12.8756	12.7317	0.323572	0.955145
12.8761	12.7321	0.322286	0.957824
12.8766	12.7326	0.32284	0.964767
12.8771	12.7331	0.320332	0.959482
12.8775	12.7335	0.322291	0.962558
12.878	12.734	0.324569	0.967713
12.8785	12.7345	0.323814	0.968615
12.8789	12.735	0.319493	0.965422
12.8794	12.7355	0.321559	0.968034
12.8799	12.736	0.323777	0.972895
12.8804	12.7364	0.324656	0.971564
12.8808	12.7369	0.321912	0.974955
12.8813	12.7374	0.3225	0.978828
12.8818	12.7379	0.322245	0.974868
12.8822	12.7383	0.323133	0.976574
12.8827	12.7388	0.325472	0.981818
12.8832	12.7393	0.323796	0.981328
12.8837	12.7397	0.322127	0.978106
12.8841	12.7402	0.323148	0.981254
12.8846	12.7407	0.324241	0.982336
12.8851	12.7412	0.324741	0.979703
12.8856	12.7416	0.324771	0.986752
12.886	12.7421	0.323911	0.986
12.8865	12.7426	0.323561	0.982389
12.887	12.743	0.323478	0.98232
12.8874	12.7435	0.327166	0.988538
12.8879	12.744	0.32438	0.985991
12.8884	12.7444	0.32332	0.982584
12.8889	12.7449	0.324429	0.988223
12.8893	12.7454	0.326141	0.989197
12.8898	12.7459	0.325896	0.990256
12.8903	12.7464	0.325419	0.991091
12.8907	12.7468	0.324402	0.991875
12.8912	12.7473	0.323419	0.98625
12.8917	12.7478	0.326854	0.990758
12.8922	12.7483	0.328003	0.993181
12.8926	12.7487	0.326929	0.992617
12.8931	12.7492	0.323998	0.992659
12.8936	12.7496	0.325516	0.99648
12.8941	12.7501	0.325502	0.992841
12.8945	12.7506	0.326555	0.992822
12.895	12.7511	0.327057	0.996175
12.8955	12.7515	0.325468	0.995464
12.8959	12.752	0.324509	0.989049
12.8964	12.7524	0.326615	0.990858
12.8969	12.7529	0.325951	0.996131
12.8974	12.7534	0.325398	0.992268
12.8978	12.7538	0.324658	0.991347
12.8983	12.7543	0.324488	0.990587
12.8988	12.7548	0.327694	0.994019
