# 1304     AichiSR QXAFS
# Start     : 8.9544
# End       : 9.0544
# Dir       : Backward
# Points    : 300
# ScanTime  : 1.01549
# Date      : 13.04.23 22:29
# Ring Cur. : 25.7[mA]
12.7557	12.6118	0.295539	0.226657
12.7562	12.6123	0.294341	0.226841
12.7566	12.6127	0.294444	0.227745
12.7571	12.6132	0.294608	0.227061
12.7576	12.6136	0.295035	0.227352
12.7581	12.6141	0.297008	0.229109
12.7585	12.6146	0.297207	0.232446
12.759	12.6151	0.29612	0.229705
12.7595	12.6155	0.295897	0.229027
12.7599	12.616	0.298866	0.230204
12.7604	12.6165	0.296393	0.233087
12.7609	12.617	0.295986	0.231788
12.7614	12.6175	0.297121	0.232005
12.7618	12.6179	0.299178	0.231117
12.7623	12.6184	0.296363	0.229796
12.7628	12.6189	0.297435	0.231381
12.7632	12.6193	0.298046	0.233326
12.7637	12.6198	0.296599	0.231191
12.7642	12.6203	0.295141	0.229781
12.7647	12.6208	0.298588	0.231231
12.7651	12.6212	0.296653	0.231868
12.7656	12.6217	0.295836	0.231613
12.7661	12.6222	0.29765	0.233731
12.7666	12.6226	0.297499	0.231582
12.767	12.6231	0.298605	0.234364
12.7675	12.6236	0.29676	0.235349
12.768	12.6241	0.297125	0.23555
12.7684	12.6245	0.297759	0.234978
12.7689	12.625	0.297198	0.233681
12.7694	12.6255	0.302105	0.23927
12.7699	12.626	0.299384	0.239174
12.7703	12.6264	0.296238	0.238306
12.7708	12.6269	0.297208	0.236247
12.7713	12.6274	0.29798	0.237794
12.7717	12.6279	0.298585	0.237472
12.7722	12.6284	0.296584	0.238189
12.7727	12.6288	0.297444	0.239874
12.7732	12.6293	0.298907	0.238081
12.7736	12.6298	0.296904	0.237082
12.7741	12.6302	0.298295	0.238182
12.7746	12.6307	0.298962	0.239709
12.7751	12.6312	0.297952	0.23986
12.7755	12.6317	0.300546	0.239199
12.776	12.6321	0.299607	0.238864
12.7765	12.6326	0.300262	0.238653
12.7769	12.633	0.296233	0.237547
12.7774	12.6335	0.298379	0.24129
12.7779	12.634	0.299459	0.238488
12.7784	12.6344	0.297955	0.237723
12.7788	12.6349	0.299529	0.239343
12.7793	12.6354	0.300303	0.241179
12.7798	12.6359	0.29821	0.241496
12.7802	12.6364	0.301609	0.242835
12.7807	12.6368	0.300721	0.241862
12.7812	12.6373	0.300117	0.242146
12.7817	12.6378	0.301542	0.244711
12.7821	12.6383	0.300805	0.245704
12.7826	12.6387	0.300969	0.244604
12.7831	12.6392	0.300545	0.24466
12.7836	12.6396	0.303121	0.246374
12.784	12.6401	0.302407	0.247887
12.7845	12.6406	0.299726	0.246718
12.785	12.6411	0.304434	0.248673
12.7854	12.6415	0.302483	0.245633
12.7859	12.642	0.300721	0.246113
12.7864	12.6425	0.303654	0.249206
12.7869	12.6429	0.303084	0.249655
12.7873	12.6434	0.302731	0.247686
12.7878	12.6438	0.302192	0.245237
12.7883	12.6443	0.304926	0.245617
12.7887	12.6448	0.303802	0.246111
12.7892	12.6453	0.299431	0.244061
12.7897	12.6458	0.302945	0.244262
12.7902	12.6462	0.302112	0.241004
12.7906	12.6467	0.302087	0.240293
12.7911	12.6472	0.302426	0.242174
12.7916	12.6477	0.304123	0.242102
12.7921	12.6482	0.303888	0.238213
12.7925	12.6486	0.303669	0.236796
12.793	12.6491	0.307274	0.237768
12.7935	12.6496	0.305553	0.23612
12.7939	12.65	0.305554	0.235012
12.7944	12.6505	0.306159	0.231127
12.7949	12.651	0.308872	0.231018
12.7954	12.6515	0.307153	0.227901
12.7958	12.6519	0.308183	0.228478
12.7963	12.6524	0.308612	0.22742
12.7968	12.6529	0.308985	0.223722
12.7972	12.6533	0.30786	0.221077
12.7977	12.6538	0.309067	0.220665
12.7982	12.6543	0.309057	0.220744
12.7987	12.6548	0.307369	0.21775
12.7991	12.6552	0.308509	0.216698
12.7996	12.6557	0.311194	0.215093
12.8001	12.6562	0.307864	0.213474
12.8006	12.6567	0.309959	0.216619
12.801	12.6572	0.309468	0.215582
12.8015	12.6576	0.310193	0.213978
12.802	12.6581	0.310836	0.212252
12.8024	12.6586	0.3108	0.214376
12.8029	12.659	0.311295	0.215308
12.8034	12.6595	0.310708	0.216024
12.8039	12.66	0.310283	0.216028
12.8043	12.6604	0.312094	0.217131
12.8048	12.6609	0.310513	0.218259
12.8053	12.6614	0.312973	0.221769
12.8057	12.6619	0.311281	0.223419
12.8062	12.6623	0.310684	0.222849
12.8067	12.6628	0.311292	0.223624
12.8072	12.6632	0.312991	0.226956
12.8076	12.6637	0.312802	0.229635
12.8081	12.6642	0.310894	0.230364
12.8086	12.6647	0.314512	0.233054
12.8091	12.6651	0.314518	0.235283
12.8095	12.6656	0.313131	0.236096
12.81	12.6661	0.313426	0.240788
12.8105	12.6666	0.314821	0.242747
12.8109	12.667	0.313619	0.241394
12.8114	12.6675	0.313414	0.242666
12.8119	12.668	0.315341	0.246322
12.8124	12.6685	0.313959	0.248307
12.8128	12.6689	0.312442	0.249388
12.8133	12.6694	0.313894	0.25066
12.8138	12.6698	0.315292	0.253784
12.8142	12.6703	0.313796	0.254602
12.8147	12.6708	0.315345	0.259012
12.8152	12.6713	0.315646	0.262277
12.8157	12.6717	0.313291	0.261175
12.8161	12.6722	0.315509	0.262213
12.8166	12.6727	0.316285	0.265089
12.8171	12.6731	0.313006	0.266236
12.8176	12.6736	0.313652	0.26704
12.818	12.6741	0.315998	0.269761
12.8185	12.6746	0.316703	0.2696
12.819	12.675	0.313048	0.268415
12.8194	12.6755	0.314298	0.270836
12.8199	12.676	0.315784	0.274013
12.8204	12.6765	0.314708	0.271035
12.8209	12.677	0.315351	0.271503
12.8213	12.6774	0.316161	0.273788
12.8218	12.6779	0.314831	0.274125
12.8223	12.6784	0.315248	0.273343
12.8227	12.6789	0.31657	0.271945
12.8232	12.6793	0.317918	0.272724
12.8237	12.6798	0.318059	0.2701
12.8242	12.6803	0.315478	0.26938
12.8246	12.6807	0.316202	0.267691
12.8251	12.6812	0.316699	0.264436
12.8256	12.6817	0.317335	0.262194
12.8261	12.6822	0.314998	0.259955
12.8265	12.6826	0.316216	0.259571
12.827	12.6831	0.31564	0.254757
12.8275	12.6835	0.314973	0.25191
12.8279	12.684	0.317522	0.250031
12.8284	12.6845	0.317116	0.248735
12.8289	12.685	0.315102	0.246603
12.8294	12.6855	0.31633	0.24438
12.8298	12.6859	0.317393	0.240644
12.8303	12.6864	0.31837	0.235701
12.8308	12.6869	0.318762	0.2347
12.8312	12.6874	0.318873	0.232183
12.8317	12.6879	0.317898	0.228568
12.8322	12.6883	0.31836	0.223886
12.8327	12.6888	0.320943	0.222109
12.8331	12.6893	0.318477	0.219482
12.8336	12.6897	0.317122	0.220104
12.8341	12.6902	0.319155	0.219458
12.8346	12.6907	0.317339	0.218807
12.835	12.6911	0.31811	0.220576
12.8355	12.6916	0.318568	0.225473
12.836	12.6921	0.317545	0.230418
12.8364	12.6925	0.316672	0.234228
12.8369	12.693	0.319609	0.238745
12.8374	12.6935	0.321037	0.244643
12.8379	12.6939	0.317072	0.245425
12.8383	12.6944	0.320124	0.252695
12.8388	12.6949	0.319413	0.255577
12.8393	12.6954	0.315881	0.254791
12.8397	12.6958	0.317727	0.256473
12.8402	12.6963	0.318541	0.259437
12.8407	12.6968	0.31618	0.258868
12.8412	12.6973	0.315072	0.256257
12.8416	12.6977	0.318676	0.256349
12.8421	12.6982	0.320634	0.253786
12.8426	12.6987	0.317949	0.250891
12.8431	12.6991	0.319081	0.250383
12.8435	12.6996	0.317747	0.245303
12.844	12.7	0.317732	0.239962
12.8445	12.7005	0.31974	0.235684
12.8449	12.701	0.31857	0.234787
12.8454	12.7015	0.317713	0.231533
12.8459	12.702	0.314822	0.227455
12.8464	12.7024	0.317088	0.223178
12.8468	12.7029	0.319541	0.22315
12.8473	12.7033	0.31662	0.222302
12.8478	12.7038	0.316365	0.225507
12.8482	12.7043	0.319401	0.22889
12.8487	12.7048	0.318297	0.231249
12.8492	12.7053	0.319689	0.237246
12.8497	12.7057	0.318896	0.246536
12.8501	12.7062	0.318879	0.256011
12.8506	12.7067	0.317359	0.262512
12.8511	12.7072	0.31853	0.273043
12.8516	12.7077	0.323225	0.286223
12.852	12.7081	0.318893	0.298148
12.8525	12.7086	0.319036	0.310517
12.853	12.7091	0.319257	0.324172
12.8534	12.7095	0.318416	0.334928
12.8539	12.71	0.319803	0.349756
12.8544	12.7105	0.32051	0.36382
12.8549	12.711	0.318164	0.375564
12.8553	12.7114	0.318172	0.388026
12.8558	12.7119	0.318924	0.400102
12.8563	12.7124	0.322663	0.412812
12.8567	12.7128	0.319855	0.422455
12.8572	12.7133	0.320078	0.432741
12.8577	12.7138	0.319763	0.441097
12.8582	12.7142	0.318822	0.446889
12.8586	12.7147	0.321059	0.455486
12.8591	12.7152	0.320626	0.46428
12.8596	12.7157	0.320701	0.472846
12.8601	12.7162	0.31885	0.480513
12.8605	12.7166	0.318961	0.48706
12.861	12.7171	0.321597	0.498241
12.8615	12.7176	0.319459	0.504421
12.8619	12.7181	0.318478	0.507497
12.8624	12.7185	0.318923	0.508867
12.8629	12.719	0.318232	0.504976
12.8634	12.7194	0.320784	0.504106
12.8638	12.7199	0.319272	0.50021
12.8643	12.7204	0.319255	0.497857
12.8648	12.7209	0.316812	0.490772
12.8652	12.7213	0.317608	0.493708
12.8657	12.7218	0.320762	0.501949
12.8662	12.7223	0.317266	0.513477
12.8667	12.7227	0.317282	0.539047
12.8671	12.7232	0.317059	0.568348
12.8676	12.7237	0.316225	0.604275
12.8681	12.7241	0.316631	0.655404
12.8686	12.7246	0.317254	0.712769
12.869	12.7251	0.312942	0.756911
12.8695	12.7256	0.311255	0.792164
12.87	12.726	0.314336	0.833379
12.8704	12.7265	0.318863	0.864175
12.8709	12.727	0.316626	0.880647
12.8714	12.7275	0.317548	0.897283
12.8719	12.7279	0.318194	0.908827
12.8723	12.7284	0.316844	0.913921
12.8728	12.7289	0.318945	0.920634
12.8733	12.7293	0.319733	0.930719
12.8737	12.7298	0.317336	0.932297
12.8742	12.7303	0.315516	0.932034
12.8747	12.7308	0.316213	0.93838
12.8752	12.7312	0.320875	0.945439
12.8756	12.7317	0.317769	0.94496
12.8761	12.7322	0.316658	0.947966
12.8766	12.7326	0.318355	0.948698
12.8771	12.7331	0.319101	0.951964
12.8775	12.7336	0.32009	0.955779
12.878	12.7341	0.318899	0.961124
12.8785	12.7345	0.318884	0.960917
12.8789	12.735	0.317511	0.953528
12.8794	12.7355	0.318373	0.959575
12.8799	12.736	0.322623	0.966123
12.8804	12.7365	0.319445	0.961011
12.8808	12.7369	0.319479	0.964842
12.8813	12.7374	0.319891	0.966351
12.8818	12.7379	0.318861	0.961173
12.8822	12.7384	0.318833	0.9619
12.8827	12.7388	0.31969	0.970434
12.8832	12.7393	0.320408	0.972811
12.8837	12.7398	0.318918	0.96604
12.8841	12.7402	0.318617	0.967273
12.8846	12.7407	0.322031	0.973254
12.8851	12.7412	0.321664	0.973286
12.8856	12.7417	0.321021	0.974191
12.886	12.7421	0.320955	0.97372
12.8865	12.7426	0.320405	0.971192
12.887	12.7431	0.322275	0.976412
12.8874	12.7435	0.322011	0.97768
12.8879	12.744	0.318282	0.973699
12.8884	12.7445	0.317622	0.968354
12.8889	12.745	0.320788	0.974352
12.8893	12.7454	0.322944	0.975453
12.8898	12.7459	0.321537	0.975943
12.8903	12.7464	0.320938	0.980325
12.8907	12.7469	0.321138	0.979223
12.8912	12.7473	0.321124	0.975603
12.8917	12.7478	0.323427	0.979425
12.8922	12.7483	0.324805	0.985677
12.8926	12.7488	0.322662	0.985407
12.8931	12.7492	0.320163	0.977653
12.8936	12.7497	0.321385	0.977033
12.8941	12.7501	0.322248	0.981564
12.8945	12.7506	0.321047	0.980486
12.895	12.7511	0.321335	0.985112
12.8955	12.7516	0.3209	0.979271
12.8959	12.752	0.319928	0.975647
12.8964	12.7525	0.321854	0.981281
12.8969	12.7529	0.322254	0.984124
12.8974	12.7534	0.321669	0.982157
12.8978	12.7539	0.321061	0.976146
12.8983	12.7543	0.322805	0.979963
12.8988	12.7548	0.32403	0.985441
