# 1304     AichiSR QXAFS
# Start     : 8.9544
# End       : 9.0544
# Dir       : Backward
# Points    : 300
# ScanTime  : 1.01549
# Date      : 13.04.23 22:29
# Ring Cur. : 25.6[mA]
12.7557	12.6118	0.299021	0.227134
12.7562	12.6123	0.296311	0.228016
12.7566	12.6127	0.29785	0.230396
12.7571	12.6132	0.298414	0.231366
12.7576	12.6137	0.299181	0.231369
12.7581	12.6141	0.301212	0.231622
12.7585	12.6146	0.300209	0.233252
12.759	12.6151	0.299947	0.233345
12.7595	12.6156	0.299359	0.235334
12.7599	12.616	0.30236	0.234174
12.7604	12.6165	0.301639	0.233675
12.7609	12.617	0.300145	0.234091
12.7614	12.6175	0.300932	0.234961
12.7618	12.6179	0.301204	0.236861
12.7623	12.6184	0.298959	0.23257
12.7628	12.6189	0.300799	0.23302
12.7632	12.6193	0.301232	0.235302
12.7637	12.6198	0.300924	0.235543
12.7642	12.6203	0.29953	0.235305
12.7647	12.6208	0.301638	0.235287
12.7651	12.6212	0.303332	0.235591
12.7656	12.6217	0.300702	0.23537
12.7661	12.6222	0.302192	0.236737
12.7666	12.6226	0.299657	0.237014
12.767	12.6231	0.301214	0.236204
12.7675	12.6236	0.302276	0.237231
12.768	12.6241	0.301504	0.238349
12.7684	12.6245	0.301041	0.238626
12.7689	12.625	0.300172	0.238986
12.7694	12.6255	0.301503	0.239884
12.7699	12.626	0.301928	0.239352
12.7703	12.6265	0.300616	0.239995
12.7708	12.6269	0.301719	0.242329
12.7713	12.6274	0.302239	0.243315
12.7717	12.6279	0.301249	0.241432
12.7722	12.6284	0.302138	0.240903
12.7727	12.6288	0.301897	0.242844
12.7732	12.6293	0.302272	0.242524
12.7736	12.6298	0.301634	0.241941
12.7741	12.6302	0.301983	0.240818
12.7746	12.6307	0.303235	0.241145
12.7751	12.6312	0.300953	0.239662
12.7755	12.6317	0.301842	0.24159
12.776	12.6321	0.301409	0.241209
12.7765	12.6326	0.302386	0.241349
12.7769	12.633	0.304412	0.240469
12.7774	12.6335	0.303672	0.243304
12.7779	12.634	0.3021	0.242865
12.7784	12.6345	0.302613	0.242505
12.7788	12.6349	0.304605	0.242055
12.7793	12.6354	0.30523	0.243626
12.7798	12.6359	0.30361	0.243746
12.7802	12.6364	0.30444	0.245104
12.7807	12.6368	0.304443	0.246786
12.7812	12.6373	0.300755	0.243579
12.7817	12.6378	0.305326	0.245246
12.7821	12.6383	0.303974	0.247324
12.7826	12.6387	0.30334	0.246856
12.7831	12.6392	0.30124	0.245267
12.7836	12.6396	0.304984	0.248143
12.784	12.6401	0.30502	0.247015
12.7845	12.6406	0.302148	0.248716
12.785	12.6411	0.305296	0.25093
12.7854	12.6415	0.304016	0.24891
12.7859	12.642	0.302859	0.24746
12.7864	12.6425	0.307262	0.249354
12.7869	12.6429	0.304876	0.250098
12.7873	12.6434	0.302859	0.247995
12.7878	12.6438	0.30268	0.24796
12.7883	12.6443	0.304454	0.246303
12.7887	12.6448	0.302864	0.245665
12.7892	12.6453	0.300574	0.244168
12.7897	12.6458	0.304018	0.246273
12.7902	12.6462	0.301756	0.242926
12.7906	12.6467	0.299454	0.23971
12.7911	12.6472	0.305105	0.24164
12.7916	12.6477	0.304678	0.241131
12.7921	12.6482	0.303845	0.239653
12.7925	12.6486	0.303565	0.238483
12.793	12.6491	0.306854	0.236025
12.7935	12.6496	0.305968	0.235088
12.7939	12.65	0.304268	0.232732
12.7944	12.6505	0.306612	0.233244
12.7949	12.651	0.305652	0.23042
12.7954	12.6515	0.304764	0.225568
12.7958	12.652	0.308442	0.226113
12.7963	12.6524	0.307977	0.224474
12.7968	12.6529	0.306605	0.223512
12.7972	12.6533	0.306171	0.221297
12.7977	12.6538	0.307289	0.218912
12.7982	12.6543	0.308893	0.218194
12.7987	12.6548	0.306821	0.217285
12.7991	12.6552	0.306998	0.217043
12.7996	12.6557	0.307197	0.215089
12.8001	12.6562	0.305753	0.21167
12.8006	12.6567	0.309739	0.21341
12.801	12.6572	0.307659	0.21318
12.8015	12.6576	0.306404	0.212314
12.802	12.6581	0.306357	0.211307
12.8024	12.6586	0.306965	0.211618
12.8029	12.659	0.307132	0.212622
12.8034	12.6595	0.307037	0.212837
12.8039	12.66	0.308095	0.21632
12.8043	12.6604	0.307864	0.215646
12.8048	12.6609	0.305795	0.215034
12.8053	12.6614	0.309188	0.21728
12.8057	12.6619	0.309861	0.221298
12.8062	12.6623	0.30654	0.222828
12.8067	12.6628	0.307031	0.223442
12.8072	12.6633	0.309386	0.223888
12.8076	12.6637	0.310054	0.226381
12.8081	12.6642	0.307787	0.228999
12.8086	12.6647	0.307989	0.229831
12.8091	12.6651	0.307696	0.232222
12.8095	12.6656	0.307602	0.231499
12.81	12.6661	0.30952	0.233759
12.8105	12.6666	0.309312	0.23674
12.8109	12.667	0.307143	0.239253
12.8114	12.6675	0.307948	0.239796
12.8119	12.668	0.309615	0.241706
12.8124	12.6685	0.311245	0.243545
12.8128	12.6689	0.307876	0.246573
12.8133	12.6694	0.308909	0.250246
12.8138	12.6698	0.30817	0.251035
12.8142	12.6703	0.307591	0.250577
12.8147	12.6708	0.312721	0.256571
12.8152	12.6713	0.313512	0.259891
12.8157	12.6717	0.306724	0.257446
12.8161	12.6722	0.308058	0.258879
12.8166	12.6727	0.311333	0.259961
12.8171	12.6731	0.310137	0.260709
12.8176	12.6736	0.307748	0.262387
12.818	12.6741	0.309862	0.265267
12.8185	12.6746	0.309894	0.265659
12.819	12.675	0.308206	0.264203
12.8194	12.6755	0.310598	0.265461
12.8199	12.676	0.311599	0.267565
12.8204	12.6765	0.309012	0.268167
12.8209	12.677	0.308657	0.267116
12.8213	12.6774	0.308995	0.268473
12.8218	12.6779	0.310978	0.267449
12.8223	12.6784	0.309399	0.267771
12.8227	12.6789	0.310423	0.268922
12.8232	12.6793	0.309412	0.26537
12.8237	12.6798	0.309722	0.265499
12.8242	12.6803	0.313251	0.264499
12.8246	12.6807	0.311873	0.263777
12.8251	12.6812	0.311391	0.261639
12.8256	12.6817	0.311039	0.258013
12.8261	12.6822	0.311857	0.256779
12.8265	12.6826	0.312354	0.253213
12.827	12.6831	0.309949	0.252043
12.8275	12.6836	0.309139	0.24947
12.8279	12.684	0.312251	0.246355
12.8284	12.6845	0.311903	0.243791
12.8289	12.685	0.312939	0.241222
12.8294	12.6855	0.313469	0.241689
12.8298	12.6859	0.312724	0.238194
12.8303	12.6864	0.311163	0.233079
12.8308	12.6869	0.313175	0.23032
12.8312	12.6874	0.316747	0.228994
12.8317	12.6879	0.314542	0.225792
12.8322	12.6883	0.312976	0.221949
12.8327	12.6888	0.31274	0.219226
12.8331	12.6893	0.315945	0.216791
12.8336	12.6897	0.316315	0.216511
12.8341	12.6902	0.315461	0.218228
12.8346	12.6907	0.313957	0.218052
12.835	12.6911	0.313253	0.219461
12.8355	12.6916	0.317482	0.222641
12.836	12.6921	0.317356	0.226994
12.8364	12.6925	0.316246	0.232857
12.8369	12.693	0.314869	0.237495
12.8374	12.6935	0.315316	0.240348
12.8379	12.6939	0.31491	0.243236
12.8383	12.6944	0.316666	0.24954
12.8388	12.6949	0.318299	0.253641
12.8393	12.6954	0.313398	0.254587
12.8397	12.6958	0.312753	0.25474
12.8402	12.6963	0.315886	0.258176
12.8407	12.6968	0.318339	0.25693
12.8412	12.6973	0.314649	0.256196
12.8416	12.6977	0.314783	0.255192
12.8421	12.6982	0.314818	0.251692
12.8426	12.6987	0.314746	0.248652
12.8431	12.6991	0.317605	0.246775
12.8435	12.6996	0.3177	0.245942
12.844	12.7001	0.315526	0.239632
12.8445	12.7005	0.315043	0.235476
12.8449	12.701	0.31863	0.232552
12.8454	12.7015	0.317817	0.228922
12.8459	12.702	0.314718	0.227176
12.8464	12.7024	0.315351	0.225061
12.8468	12.7029	0.315548	0.222122
12.8473	12.7034	0.315013	0.221946
12.8478	12.7038	0.316656	0.223884
12.8482	12.7043	0.31993	0.22961
12.8487	12.7048	0.317708	0.233476
12.8492	12.7053	0.314475	0.235488
12.8497	12.7058	0.319443	0.245405
12.8501	12.7062	0.322005	0.256272
12.8506	12.7067	0.319706	0.263825
12.8511	12.7072	0.31764	0.274685
12.8516	12.7077	0.318252	0.28331
12.852	12.7081	0.319452	0.295375
12.8525	12.7086	0.319777	0.310018
12.853	12.7091	0.319275	0.325047
12.8534	12.7095	0.317397	0.336308
12.8539	12.71	0.316342	0.347074
12.8544	12.7105	0.321443	0.362495
12.8549	12.711	0.319953	0.379125
12.8553	12.7114	0.321508	0.390526
12.8558	12.7119	0.321116	0.405132
12.8563	12.7124	0.320824	0.413255
12.8567	12.7128	0.319984	0.420087
12.8572	12.7133	0.321961	0.432772
12.8577	12.7138	0.323299	0.445129
12.8582	12.7143	0.320429	0.449681
12.8586	12.7147	0.318848	0.452278
12.8591	12.7152	0.321374	0.461871
12.8596	12.7157	0.321737	0.474473
12.8601	12.7162	0.320259	0.483187
12.8605	12.7166	0.319104	0.490583
12.861	12.7171	0.319949	0.496151
12.8615	12.7176	0.319521	0.503441
12.8619	12.7181	0.321795	0.509573
12.8624	12.7185	0.321094	0.513739
12.8629	12.719	0.319026	0.507358
12.8634	12.7195	0.319647	0.504573
12.8638	12.7199	0.321559	0.500242
12.8643	12.7204	0.320552	0.497458
12.8648	12.7209	0.318928	0.495595
12.8652	12.7213	0.321061	0.500315
12.8657	12.7218	0.318066	0.501405
12.8662	12.7223	0.317566	0.512797
12.8667	12.7227	0.319981	0.53796
12.8671	12.7232	0.322478	0.576386
12.8676	12.7237	0.316525	0.610687
12.8681	12.7241	0.315526	0.655922
12.8686	12.7246	0.318732	0.712045
12.869	12.7251	0.315977	0.760675
12.8695	12.7256	0.315554	0.80295
12.87	12.726	0.317767	0.841417
12.8704	12.7265	0.318224	0.86466
12.8709	12.727	0.318051	0.879157
12.8714	12.7275	0.319917	0.89944
12.8719	12.7279	0.320035	0.916587
12.8723	12.7284	0.31895	0.92235
12.8728	12.7289	0.317763	0.920263
12.8733	12.7293	0.321131	0.932869
12.8737	12.7298	0.320542	0.937556
12.8742	12.7303	0.319945	0.942233
12.8747	12.7308	0.320084	0.950421
12.8752	12.7312	0.320911	0.945519
12.8756	12.7317	0.32103	0.946288
12.8761	12.7322	0.321297	0.954325
12.8766	12.7327	0.322628	0.962997
12.8771	12.7331	0.320239	0.958246
12.8775	12.7336	0.318556	0.954745
12.878	12.7341	0.322407	0.961301
12.8785	12.7345	0.321754	0.963965
12.8789	12.735	0.320799	0.963686
12.8794	12.7355	0.320939	0.969511
12.8799	12.736	0.321556	0.968745
12.8804	12.7365	0.321233	0.966312
12.8808	12.737	0.321492	0.971248
12.8813	12.7374	0.322634	0.976443
12.8818	12.7379	0.321542	0.973105
12.8822	12.7384	0.320819	0.966841
12.8827	12.7388	0.325611	0.976649
12.8832	12.7393	0.323	0.978379
12.8837	12.7398	0.32227	0.976507
12.8841	12.7402	0.323358	0.980532
12.8846	12.7407	0.323082	0.977751
12.8851	12.7412	0.323231	0.97466
12.8856	12.7417	0.323104	0.979473
12.886	12.7421	0.323506	0.981673
12.8865	12.7426	0.321902	0.981229
12.887	12.7431	0.320467	0.977547
12.8874	12.7435	0.324616	0.982465
12.8879	12.744	0.323411	0.984745
12.8884	12.7445	0.322471	0.982546
12.8889	12.745	0.324411	0.988562
12.8893	12.7454	0.321553	0.983544
12.8898	12.7459	0.323274	0.984197
12.8903	12.7464	0.325715	0.989761
12.8907	12.7469	0.325949	0.989746
12.8912	12.7473	0.323824	0.986565
12.8917	12.7478	0.322104	0.983939
12.8922	12.7483	0.326031	0.990126
12.8926	12.7488	0.324362	0.989334
12.8931	12.7492	0.324696	0.990724
12.8936	12.7497	0.32521	0.993561
12.8941	12.7501	0.323775	0.987959
12.8945	12.7506	0.325496	0.984893
12.895	12.7511	0.325149	0.99019
12.8955	12.7516	0.325982	0.996132
12.8959	12.752	0.323327	0.991825
12.8964	12.7525	0.323235	0.985729
12.8969	12.7529	0.326821	0.993595
12.8974	12.7534	0.325792	0.993239
12.8978	12.7539	0.323834	0.991452
12.8983	12.7544	0.325188	0.99271
12.8988	12.7548	0.323457	0.992477
