# 1304     AichiSR QXAFS
# Start     : 8.9544
# End       : 9.0544
# Dir       : Backward
# Points    : 300
# ScanTime  : 1.01549
# Date      : 13.04.23 22:33
# Ring Cur. : 25.6[mA]
12.7557	12.6119	0.308137	0.237639
12.7562	12.6123	0.307351	0.235674
12.7566	12.6128	0.308691	0.23689
12.7571	12.6132	0.311109	0.238972
12.7576	12.6137	0.309969	0.240522
12.7581	12.6142	0.309008	0.239163
12.7585	12.6146	0.309845	0.241125
12.759	12.6151	0.312146	0.240335
12.7595	12.6156	0.311177	0.241078
12.7599	12.6161	0.310782	0.24217
12.7604	12.6165	0.310658	0.243024
12.7609	12.617	0.310486	0.241452
12.7614	12.6175	0.311563	0.240568
12.7618	12.618	0.311909	0.242646
12.7623	12.6184	0.309354	0.242816
12.7628	12.6189	0.31041	0.242936
12.7632	12.6194	0.312265	0.241993
12.7637	12.6198	0.313018	0.242318
12.7642	12.6203	0.310687	0.242139
12.7647	12.6208	0.311497	0.243604
12.7651	12.6213	0.312915	0.244051
12.7656	12.6218	0.310361	0.241577
12.7661	12.6222	0.313491	0.243869
12.7666	12.6227	0.310309	0.243828
12.767	12.6232	0.310863	0.245032
12.7675	12.6236	0.309424	0.244984
12.768	12.6241	0.309476	0.244875
12.7684	12.6246	0.311822	0.244965
12.7689	12.6251	0.308541	0.244418
12.7694	12.6255	0.31146	0.249345
12.7699	12.626	0.310451	0.24991
12.7703	12.6265	0.309778	0.247862
12.7708	12.627	0.313403	0.246893
12.7713	12.6275	0.313039	0.250899
12.7717	12.6279	0.311891	0.249657
12.7722	12.6284	0.309764	0.249749
12.7727	12.6289	0.312922	0.250895
12.7732	12.6293	0.313913	0.249541
12.7736	12.6298	0.31	0.248559
12.7741	12.6303	0.310888	0.251606
12.7746	12.6307	0.311869	0.24905
12.7751	12.6312	0.308794	0.245917
12.7755	12.6317	0.312995	0.249781
12.776	12.6322	0.311569	0.249727
12.7765	12.6326	0.310811	0.248574
12.7769	12.6331	0.31126	0.248901
12.7774	12.6335	0.314278	0.250023
12.7779	12.634	0.314431	0.248447
12.7784	12.6345	0.312265	0.249513
12.7788	12.635	0.313589	0.251142
12.7793	12.6354	0.31229	0.24992
12.7798	12.6359	0.310959	0.24978
12.7802	12.6364	0.313781	0.251903
12.7807	12.6369	0.311457	0.251083
12.7812	12.6373	0.31011	0.251184
12.7817	12.6378	0.312093	0.253838
12.7821	12.6383	0.312784	0.251715
12.7826	12.6388	0.314447	0.255118
12.7831	12.6392	0.31626	0.257106
12.7836	12.6397	0.315019	0.257566
12.784	12.6401	0.312205	0.255354
12.7845	12.6406	0.312845	0.255091
12.785	12.6411	0.316281	0.257065
12.7854	12.6416	0.313066	0.257288
12.7859	12.642	0.314001	0.256865
12.7864	12.6425	0.313863	0.25575
12.7869	12.643	0.314097	0.25587
12.7873	12.6434	0.313244	0.253974
12.7878	12.6439	0.311315	0.253336
12.7883	12.6444	0.311613	0.254865
12.7887	12.6448	0.310281	0.25158
12.7892	12.6453	0.309689	0.250122
12.7897	12.6458	0.313837	0.250706
12.7902	12.6463	0.313313	0.249484
12.7906	12.6468	0.311456	0.250081
12.7911	12.6472	0.312804	0.249111
12.7916	12.6477	0.314053	0.247469
12.7921	12.6482	0.317261	0.247091
12.7925	12.6487	0.315248	0.245152
12.793	12.6491	0.315719	0.245195
12.7935	12.6496	0.316103	0.24242
12.7939	12.6501	0.313748	0.239434
12.7944	12.6505	0.317344	0.238477
12.7949	12.651	0.316523	0.237541
12.7954	12.6515	0.315295	0.23511
12.7958	12.652	0.315345	0.233591
12.7963	12.6524	0.318638	0.231747
12.7968	12.6529	0.31934	0.230593
12.7972	12.6534	0.317837	0.22955
12.7977	12.6538	0.318656	0.22878
12.7982	12.6543	0.318683	0.226573
12.7987	12.6548	0.31748	0.223823
12.7991	12.6553	0.321209	0.223934
12.7996	12.6558	0.319368	0.223504
12.8001	12.6562	0.317582	0.221761
12.8006	12.6567	0.319799	0.220006
12.801	12.6572	0.320615	0.220485
12.8015	12.6577	0.320458	0.219241
12.802	12.6581	0.319682	0.221128
12.8024	12.6586	0.319287	0.221739
12.8029	12.6591	0.320403	0.222841
12.8034	12.6595	0.319843	0.221151
12.8039	12.66	0.322228	0.223921
12.8043	12.6605	0.321968	0.225606
12.8048	12.661	0.320591	0.227177
12.8053	12.6614	0.321726	0.230293
12.8057	12.6619	0.322312	0.229306
12.8062	12.6624	0.322442	0.231233
12.8067	12.6628	0.322765	0.23433
12.8072	12.6633	0.324041	0.237373
12.8076	12.6637	0.321889	0.236187
12.8081	12.6642	0.320811	0.23738
12.8086	12.6647	0.324094	0.239678
12.8091	12.6652	0.322459	0.243814
12.8095	12.6657	0.321699	0.24329
12.81	12.6661	0.323831	0.246099
12.8105	12.6666	0.326495	0.24884
12.8109	12.6671	0.325148	0.250136
12.8114	12.6676	0.323792	0.252512
12.8119	12.668	0.324848	0.256501
12.8124	12.6685	0.32518	0.258336
12.8128	12.669	0.323425	0.258762
12.8133	12.6694	0.32684	0.262485
12.8138	12.6699	0.324996	0.265063
12.8142	12.6704	0.324513	0.265019
12.8147	12.6708	0.324262	0.267003
12.8152	12.6713	0.326122	0.269623
12.8157	12.6718	0.327138	0.270716
12.8161	12.6722	0.323134	0.272842
12.8166	12.6727	0.326559	0.276198
12.8171	12.6732	0.325047	0.275348
12.8176	12.6736	0.324407	0.275559
12.818	12.6741	0.3274	0.277962
12.8185	12.6746	0.326625	0.279357
12.819	12.6751	0.324191	0.280347
12.8194	12.6756	0.324737	0.279439
12.8199	12.676	0.329841	0.281887
12.8204	12.6765	0.32796	0.282643
12.8209	12.677	0.326966	0.282893
12.8213	12.6775	0.326845	0.284872
12.8218	12.678	0.326881	0.282179
12.8223	12.6784	0.326112	0.280112
12.8227	12.6789	0.329625	0.281212
12.8232	12.6794	0.328382	0.281565
12.8237	12.6798	0.327191	0.281429
12.8242	12.6803	0.326946	0.276334
12.8246	12.6808	0.32914	0.276427
12.8251	12.6813	0.329289	0.273771
12.8256	12.6817	0.328004	0.271484
12.8261	12.6822	0.326944	0.270579
12.8265	12.6827	0.327765	0.265416
12.827	12.6831	0.326556	0.262953
12.8275	12.6836	0.32793	0.261377
12.8279	12.6841	0.327037	0.260076
12.8284	12.6845	0.327012	0.25698
12.8289	12.685	0.327165	0.252891
12.8294	12.6855	0.327981	0.249332
12.8298	12.686	0.328431	0.248542
12.8303	12.6865	0.328016	0.24445
12.8308	12.6869	0.329861	0.242881
12.8312	12.6874	0.3281	0.23681
12.8317	12.6879	0.330996	0.234046
12.8322	12.6884	0.332949	0.232216
12.8327	12.6888	0.330596	0.22959
12.8331	12.6893	0.3287	0.228023
12.8336	12.6897	0.33036	0.227115
12.8341	12.6902	0.333101	0.225742
12.8346	12.6907	0.331751	0.227901
12.835	12.6912	0.330359	0.233406
12.8355	12.6916	0.329058	0.235953
12.836	12.6921	0.329674	0.238219
12.8364	12.6926	0.330749	0.241891
12.8369	12.693	0.332712	0.249568
12.8374	12.6935	0.331551	0.254168
12.8379	12.694	0.328651	0.258488
12.8383	12.6944	0.328725	0.259566
12.8388	12.6949	0.332365	0.263843
12.8393	12.6954	0.330618	0.266342
12.8397	12.6959	0.330212	0.270659
12.8402	12.6963	0.329051	0.269735
12.8407	12.6968	0.329589	0.268024
12.8412	12.6973	0.331371	0.267351
12.8416	12.6978	0.332785	0.266471
12.8421	12.6982	0.331155	0.265185
12.8426	12.6987	0.328873	0.260675
12.8431	12.6992	0.329166	0.255675
12.8435	12.6996	0.331404	0.252254
12.844	12.7001	0.329874	0.248909
12.8445	12.7006	0.329313	0.245279
12.8449	12.701	0.329119	0.241163
12.8454	12.7015	0.328752	0.23643
12.8459	12.702	0.328676	0.234014
12.8464	12.7025	0.329782	0.233158
12.8468	12.7029	0.332396	0.234331
12.8473	12.7034	0.32945	0.232591
12.8478	12.7039	0.329153	0.234709
12.8482	12.7043	0.332757	0.238056
12.8487	12.7048	0.331176	0.245159
12.8492	12.7053	0.330723	0.249739
12.8497	12.7058	0.33178	0.258246
12.8501	12.7063	0.330984	0.264692
12.8506	12.7067	0.330227	0.275035
12.8511	12.7072	0.331434	0.287275
12.8516	12.7077	0.332966	0.302384
12.852	12.7082	0.329472	0.311201
12.8525	12.7087	0.329938	0.324234
12.853	12.7091	0.33335	0.339159
12.8534	12.7096	0.332222	0.35587
12.8539	12.71	0.332674	0.369941
12.8544	12.7105	0.332707	0.384579
12.8549	12.711	0.332119	0.395788
12.8553	12.7115	0.333266	0.405856
12.8558	12.712	0.333313	0.421336
12.8563	12.7124	0.333161	0.433802
12.8567	12.7129	0.332424	0.440581
12.8572	12.7133	0.329752	0.44665
12.8577	12.7138	0.332018	0.457437
12.8582	12.7143	0.330726	0.465903
12.8586	12.7148	0.331639	0.475922
12.8591	12.7152	0.3318	0.48458
12.8596	12.7157	0.330692	0.48864
12.8601	12.7162	0.334559	0.500661
12.8605	12.7167	0.331426	0.512412
12.861	12.7172	0.333572	0.522934
12.8615	12.7176	0.332265	0.526566
12.8619	12.7181	0.331823	0.528395
12.8624	12.7186	0.33332	0.528635
12.8629	12.719	0.332	0.525667
12.8634	12.7195	0.33116	0.521577
12.8638	12.72	0.331124	0.518167
12.8643	12.7204	0.328961	0.511596
12.8648	12.7209	0.33104	0.50835
12.8652	12.7214	0.331062	0.514474
12.8657	12.7218	0.331922	0.525286
12.8662	12.7223	0.328227	0.537604
12.8667	12.7228	0.329003	0.561645
12.8671	12.7232	0.33332	0.603806
12.8676	12.7237	0.329585	0.646767
12.8681	12.7242	0.327511	0.702419
12.8686	12.7246	0.328228	0.760303
12.869	12.7251	0.326082	0.799311
12.8695	12.7256	0.32661	0.839231
12.87	12.7261	0.32894	0.878628
12.8704	12.7265	0.328248	0.905323
12.8709	12.727	0.327176	0.916453
12.8714	12.7275	0.328468	0.930846
12.8719	12.728	0.331061	0.944382
12.8723	12.7285	0.329138	0.949241
12.8728	12.7289	0.329552	0.95921
12.8733	12.7294	0.331325	0.969837
12.8737	12.7298	0.328861	0.966031
12.8742	12.7303	0.330927	0.972031
12.8747	12.7308	0.33364	0.983384
12.8752	12.7313	0.33124	0.982092
12.8756	12.7318	0.33062	0.984819
12.8761	12.7322	0.330778	0.983359
12.8766	12.7327	0.332885	0.990134
12.8771	12.7332	0.329981	0.990495
12.8775	12.7336	0.329913	0.990961
12.878	12.7341	0.331208	0.994083
12.8785	12.7346	0.329165	0.990827
12.8789	12.7351	0.332328	0.995395
12.8794	12.7355	0.331312	0.998324
12.8799	12.736	0.331064	1.0017
12.8804	12.7365	0.33217	1.00358
12.8808	12.737	0.330491	0.999388
12.8813	12.7375	0.334208	1.0048
12.8818	12.7379	0.332592	1.00625
12.8822	12.7384	0.332941	1.00783
12.8827	12.7389	0.333622	1.00678
12.8832	12.7393	0.332071	1.00603
12.8837	12.7398	0.334306	1.00181
12.8841	12.7403	0.332598	1.00739
12.8846	12.7408	0.334194	1.01202
12.8851	12.7412	0.331836	1.0071
12.8856	12.7417	0.33197	1.0051
12.886	12.7422	0.33509	1.0116
12.8865	12.7426	0.333844	1.01366
12.887	12.7431	0.331995	1.0133
12.8874	12.7436	0.333876	1.01581
12.8879	12.744	0.334625	1.01446
12.8884	12.7445	0.334058	1.01331
12.8889	12.745	0.335095	1.01885
12.8893	12.7455	0.334272	1.01907
12.8898	12.746	0.332693	1.01631
12.8903	12.7464	0.334497	1.01716
12.8907	12.7469	0.337929	1.0217
12.8912	12.7474	0.335577	1.01877
12.8917	12.7479	0.334489	1.01745
12.8922	12.7483	0.333406	1.02058
12.8926	12.7488	0.333997	1.01504
12.8931	12.7492	0.334679	1.01579
12.8936	12.7497	0.335057	1.02451
12.8941	12.7502	0.33347	1.0221
12.8945	12.7506	0.333227	1.01745
12.895	12.7511	0.334646	1.01757
12.8955	12.7516	0.336956	1.0237
12.8959	12.7521	0.334223	1.02186
12.8964	12.7525	0.335468	1.02305
12.8969	12.753	0.334521	1.0258
12.8974	12.7535	0.335088	1.01926
12.8978	12.7539	0.334717	1.02092
12.8983	12.7544	0.335061	1.01983
12.8988	12.7549	0.335374	1.02502
