# 1304     AichiSR QXAFS
# Start     : 8.9544
# End       : 9.0544
# Dir       : Forward
# Points    : 300
# ScanTime  : 1.01549
# Date      : 13.04.23 22:32
# Ring Cur. : 25.7[mA]
12.7557	12.7558	0.407693	1.23648
12.7562	12.7553	0.407813	1.23905
12.7566	12.7548	0.405229	1.23934
12.7571	12.7544	0.404502	1.23873
12.7576	12.7539	0.40622	1.23564
12.7581	12.7534	0.405671	1.23812
12.7585	12.753	0.405988	1.23912
12.759	12.7525	0.405906	1.23858
12.7595	12.752	0.406172	1.23594
12.7599	12.7516	0.407271	1.23515
12.7604	12.7511	0.407979	1.23539
12.7609	12.7506	0.407061	1.23897
12.7614	12.7501	0.405838	1.23887
12.7618	12.7497	0.406659	1.23495
12.7623	12.7492	0.404125	1.23499
12.7628	12.7488	0.407993	1.23585
12.7632	12.7483	0.407046	1.23668
12.7637	12.7478	0.405836	1.23567
12.7642	12.7473	0.406671	1.23602
12.7647	12.7469	0.405157	1.23091
12.7651	12.7464	0.405843	1.23296
12.7656	12.7459	0.404933	1.23503
12.7661	12.7454	0.405034	1.23401
12.7666	12.745	0.404509	1.23189
12.767	12.7445	0.404145	1.23067
12.7675	12.744	0.405306	1.22749
12.768	12.7435	0.405701	1.23102
12.7684	12.7431	0.405192	1.23045
12.7689	12.7426	0.404548	1.22901
12.7694	12.7421	0.404322	1.22743
12.7699	12.7417	0.405763	1.22613
12.7703	12.7412	0.405701	1.22871
12.7708	12.7407	0.404688	1.22941
12.7713	12.7402	0.403505	1.22476
12.7717	12.7398	0.403473	1.22166
12.7722	12.7393	0.405352	1.2208
12.7727	12.7389	0.405303	1.22569
12.7732	12.7384	0.403669	1.22435
12.7736	12.7379	0.404016	1.22183
12.7741	12.7374	0.404944	1.21799
12.7746	12.737	0.404593	1.22065
12.7751	12.7365	0.404184	1.2216
12.7755	12.736	0.402968	1.22052
12.776	12.7355	0.404171	1.21509
12.7765	12.735	0.401447	1.2131
12.7769	12.7345	0.404065	1.21104
12.7774	12.7341	0.405022	1.21303
12.7779	12.7336	0.403327	1.21145
12.7784	12.7331	0.403405	1.20701
12.7788	12.7327	0.403913	1.20518
12.7793	12.7322	0.403918	1.20089
12.7798	12.7317	0.40481	1.20398
12.7802	12.7312	0.402058	1.19931
12.7807	12.7308	0.4023	1.19563
12.7812	12.7303	0.403133	1.18869
12.7817	12.7298	0.402964	1.18353
12.7821	12.7294	0.403967	1.18525
12.7826	12.7289	0.401377	1.17929
12.7831	12.7284	0.40126	1.16845
12.7836	12.728	0.401553	1.16394
12.784	12.7275	0.402866	1.15538
12.7845	12.727	0.401581	1.14279
12.785	12.7265	0.399229	1.13023
12.7854	12.7261	0.399181	1.10666
12.7859	12.7256	0.397347	1.07801
12.7864	12.7251	0.396737	1.04136
12.7869	12.7246	0.396734	1.00173
12.7873	12.7242	0.394799	0.948481
12.7878	12.7237	0.396965	0.882286
12.7883	12.7232	0.398235	0.820152
12.7887	12.7227	0.402354	0.761039
12.7892	12.7223	0.401961	0.712876
12.7897	12.7218	0.400969	0.674154
12.7902	12.7214	0.401349	0.644961
12.7906	12.7209	0.401875	0.630212
12.7911	12.7204	0.402416	0.620383
12.7916	12.7199	0.403272	0.622165
12.7921	12.7195	0.39938	0.623108
12.7925	12.719	0.400817	0.628008
12.793	12.7185	0.402723	0.629936
12.7935	12.7181	0.400909	0.636036
12.7939	12.7176	0.40298	0.639361
12.7944	12.7171	0.400645	0.636496
12.7949	12.7166	0.401226	0.628884
12.7954	12.7162	0.400794	0.620839
12.7958	12.7157	0.402681	0.60937
12.7963	12.7152	0.40043	0.599378
12.7968	12.7147	0.399495	0.587292
12.7972	12.7143	0.399611	0.574554
12.7977	12.7138	0.40081	0.565683
12.7982	12.7133	0.399777	0.556961
12.7987	12.7128	0.400937	0.546257
12.7991	12.7124	0.399004	0.535904
12.7996	12.7119	0.400002	0.523792
12.8001	12.7115	0.400708	0.50924
12.8006	12.711	0.398897	0.494903
12.801	12.7105	0.399773	0.483131
12.8015	12.71	0.399161	0.467169
12.802	12.7096	0.398145	0.44949
12.8024	12.7091	0.400114	0.433094
12.8029	12.7086	0.399733	0.417333
12.8034	12.7082	0.401168	0.401555
12.8039	12.7077	0.398365	0.385397
12.8043	12.7072	0.399804	0.365401
12.8048	12.7067	0.399767	0.351021
12.8053	12.7062	0.400556	0.338308
12.8057	12.7058	0.400302	0.327929
12.8062	12.7053	0.39791	0.315006
12.8067	12.7048	0.396499	0.302086
12.8072	12.7043	0.39814	0.294237
12.8076	12.7038	0.397911	0.289099
12.8081	12.7034	0.398029	0.284793
12.8086	12.7029	0.397236	0.280646
12.8091	12.7024	0.397585	0.278941
12.8095	12.702	0.397942	0.278719
12.81	12.7015	0.397278	0.28161
12.8105	12.701	0.398689	0.285697
12.8109	12.7005	0.397157	0.28824
12.8114	12.7001	0.396785	0.290675
12.8119	12.6996	0.399215	0.294285
12.8124	12.6991	0.397712	0.301239
12.8128	12.6987	0.398534	0.306507
12.8133	12.6982	0.396669	0.310589
12.8138	12.6978	0.395699	0.312087
12.8142	12.6973	0.397561	0.315403
12.8147	12.6968	0.396086	0.319326
12.8152	12.6963	0.39678	0.323526
12.8157	12.6958	0.394941	0.323074
12.8161	12.6954	0.395324	0.321902
12.8166	12.6949	0.397371	0.319567
12.8171	12.6944	0.395221	0.317693
12.8176	12.6939	0.394704	0.316037
12.818	12.6935	0.395883	0.311478
12.8185	12.693	0.396112	0.305786
12.819	12.6925	0.396222	0.298985
12.8194	12.6921	0.395096	0.293149
12.8199	12.6916	0.394197	0.288524
12.8204	12.6911	0.394579	0.28501
12.8209	12.6907	0.393611	0.277044
12.8213	12.6902	0.395137	0.273567
12.8218	12.6897	0.395199	0.272775
12.8223	12.6893	0.393844	0.273461
12.8227	12.6888	0.394561	0.271713
12.8232	12.6883	0.39421	0.272829
12.8237	12.6879	0.396098	0.274572
12.8242	12.6874	0.399158	0.281364
12.8246	12.6869	0.396958	0.283801
12.8251	12.6864	0.39378	0.286828
12.8256	12.686	0.392373	0.288422
12.8261	12.6855	0.392578	0.292717
12.8265	12.685	0.39258	0.297525
12.827	12.6845	0.392396	0.302318
12.8275	12.684	0.391286	0.306011
12.8279	12.6836	0.391345	0.306495
12.8284	12.6831	0.392271	0.31068
12.8289	12.6826	0.39322	0.314723
12.8294	12.6822	0.391847	0.317878
12.8298	12.6817	0.39321	0.320639
12.8303	12.6812	0.391833	0.321933
12.8308	12.6807	0.394163	0.325884
12.8312	12.6803	0.392891	0.329131
12.8317	12.6798	0.393423	0.33264
12.8322	12.6793	0.3943	0.335022
12.8327	12.6789	0.392804	0.334707
12.8331	12.6784	0.396373	0.337291
12.8336	12.6779	0.393447	0.338834
12.8341	12.6775	0.392933	0.340309
12.8346	12.677	0.394411	0.341395
12.835	12.6765	0.393267	0.338865
12.8355	12.676	0.396543	0.33942
12.836	12.6755	0.394333	0.34006
12.8364	12.675	0.39413	0.340325
12.8369	12.6746	0.392606	0.33849
12.8374	12.6741	0.394259	0.33549
12.8379	12.6736	0.396463	0.335406
12.8383	12.6731	0.395356	0.336944
12.8388	12.6727	0.395455	0.336128
12.8393	12.6722	0.394552	0.334267
12.8397	12.6718	0.393607	0.33034
12.8402	12.6713	0.397254	0.328783
12.8407	12.6708	0.396105	0.328661
12.8412	12.6703	0.393528	0.326694
12.8416	12.6699	0.394696	0.324545
12.8421	12.6694	0.396142	0.319828
12.8426	12.6689	0.396262	0.319538
12.8431	12.6685	0.396659	0.317723
12.8435	12.668	0.395758	0.317345
12.844	12.6675	0.395686	0.311456
12.8445	12.6671	0.395996	0.307846
12.8449	12.6666	0.396972	0.305879
12.8454	12.6661	0.396286	0.305101
12.8459	12.6656	0.395493	0.302748
12.8464	12.6652	0.395678	0.299755
12.8468	12.6647	0.395796	0.297547
12.8473	12.6642	0.397847	0.295125
12.8478	12.6637	0.39746	0.294739
12.8482	12.6633	0.395764	0.292721
12.8487	12.6628	0.395725	0.289376
12.8492	12.6623	0.397902	0.286554
12.8497	12.6619	0.398338	0.285412
12.8501	12.6614	0.396644	0.284244
12.8506	12.6609	0.39455	0.281935
12.8511	12.6605	0.396281	0.279915
12.8516	12.66	0.396102	0.277447
12.852	12.6595	0.39534	0.27586
12.8525	12.6591	0.396689	0.274778
12.853	12.6586	0.394439	0.27466
12.8534	12.6581	0.396931	0.274016
12.8539	12.6577	0.396403	0.272328
12.8544	12.6572	0.395567	0.271136
12.8549	12.6567	0.396756	0.273523
12.8553	12.6562	0.395761	0.27457
12.8558	12.6557	0.397287	0.273394
12.8563	12.6553	0.396683	0.273584
12.8567	12.6548	0.39833	0.274826
12.8572	12.6543	0.396589	0.277308
12.8577	12.6538	0.396326	0.279571
12.8582	12.6534	0.396237	0.281588
12.8586	12.6529	0.395806	0.281383
12.8591	12.6524	0.398371	0.284187
12.8596	12.652	0.397039	0.289291
12.8601	12.6515	0.395179	0.29169
12.8605	12.651	0.396471	0.292825
12.861	12.6505	0.396511	0.293541
12.8615	12.65	0.396886	0.298497
12.8619	12.6496	0.39772	0.30094
12.8624	12.6491	0.395506	0.304316
12.8629	12.6486	0.395249	0.305159
12.8634	12.6482	0.39627	0.306537
12.8638	12.6477	0.397652	0.308772
12.8643	12.6472	0.395284	0.310191
12.8648	12.6467	0.393018	0.312441
12.8652	12.6463	0.393837	0.313121
12.8657	12.6458	0.394486	0.311843
12.8662	12.6453	0.393376	0.314904
12.8667	12.6448	0.392971	0.316871
12.8671	12.6443	0.39301	0.318377
12.8676	12.6439	0.394633	0.319176
12.8681	12.6434	0.395208	0.318013
12.8686	12.6429	0.397072	0.321673
12.869	12.6425	0.396219	0.323985
12.8695	12.642	0.395309	0.323473
12.87	12.6416	0.396516	0.323326
12.8704	12.6411	0.39783	0.322418
12.8709	12.6406	0.397779	0.323019
12.8714	12.6401	0.397071	0.324414
12.8719	12.6397	0.396876	0.322788
12.8723	12.6392	0.395708	0.322122
12.8728	12.6387	0.396788	0.32039
12.8733	12.6383	0.397037	0.322578
12.8737	12.6378	0.397783	0.322414
12.8742	12.6373	0.396599	0.321413
12.8747	12.6369	0.396393	0.320437
12.8752	12.6364	0.397779	0.318195
12.8756	12.6359	0.397259	0.318302
12.8761	12.6354	0.396796	0.319678
12.8766	12.6349	0.395911	0.318267
12.8771	12.6345	0.396205	0.316074
12.8775	12.634	0.396907	0.315964
12.878	12.6335	0.397168	0.314812
12.8785	12.6331	0.396838	0.31674
12.8789	12.6326	0.396344	0.316845
12.8794	12.6321	0.396611	0.314781
12.8799	12.6317	0.39704	0.314339
12.8804	12.6312	0.39515	0.315479
12.8808	12.6307	0.399022	0.317012
12.8813	12.6302	0.396281	0.317527
12.8818	12.6298	0.396148	0.315622
12.8822	12.6293	0.395796	0.315457
12.8827	12.6288	0.395599	0.314695
12.8832	12.6284	0.396943	0.3173
12.8837	12.6279	0.394282	0.316673
12.8841	12.6274	0.394596	0.316688
12.8846	12.6269	0.397204	0.316174
12.8851	12.6265	0.396773	0.316356
12.8856	12.626	0.396712	0.317141
12.886	12.6255	0.394347	0.315508
12.8865	12.625	0.396641	0.313164
12.887	12.6245	0.395255	0.312368
12.8874	12.6241	0.395784	0.312622
12.8879	12.6236	0.396527	0.313535
12.8884	12.6231	0.394276	0.311193
12.8889	12.6227	0.394085	0.309861
12.8893	12.6222	0.396176	0.3107
12.8898	12.6217	0.393836	0.307873
12.8903	12.6213	0.395308	0.308449
12.8907	12.6208	0.394001	0.308812
12.8912	12.6203	0.395016	0.305674
12.8917	12.6198	0.394327	0.304775
12.8922	12.6193	0.395086	0.306587
12.8926	12.6189	0.395749	0.309275
12.8931	12.6184	0.392505	0.307263
12.8936	12.618	0.39368	0.30475
12.8941	12.6175	0.397413	0.306389
12.8945	12.617	0.395734	0.305968
12.895	12.6165	0.394156	0.307519
12.8955	12.616	0.394333	0.306516
12.8959	12.6156	0.393293	0.305052
12.8964	12.6151	0.393907	0.303672
12.8969	12.6146	0.394178	0.305277
12.8974	12.6141	0.393501	0.305831
12.8978	12.6137	0.391209	0.305597
12.8983	12.6132	0.392788	0.303112
12.8988	12.6127	0.394763	0.301765
