# 1304     AichiSR QXAFS
# Start     : 8.9544
# End       : 9.0544
# Dir       : Forward
# Points    : 300
# ScanTime  : 1.01549
# Date      : 13.04.23 22:24
# Ring Cur. : 25.4[mA]
12.7557	12.7557	0.403171	1.23009
12.7562	12.7552	0.402809	1.22765
12.7566	12.7548	0.401805	1.22548
12.7571	12.7543	0.40348	1.22704
12.7576	12.7538	0.403231	1.22752
12.7581	12.7533	0.402116	1.22681
12.7585	12.7529	0.401094	1.22619
12.759	12.7524	0.400981	1.22297
12.7595	12.752	0.402626	1.22377
12.7599	12.7515	0.402061	1.22598
12.7604	12.751	0.403106	1.22997
12.7609	12.7505	0.401349	1.22571
12.7614	12.7501	0.401228	1.22343
12.7618	12.7496	0.40446	1.22504
12.7623	12.7492	0.403028	1.22715
12.7628	12.7487	0.403363	1.22444
12.7632	12.7482	0.402128	1.225
12.7637	12.7478	0.403563	1.22279
12.7642	12.7473	0.403501	1.22253
12.7647	12.7468	0.403819	1.22559
12.7651	12.7463	0.400915	1.2248
12.7656	12.7458	0.401801	1.22351
12.7661	12.7454	0.400892	1.22207
12.7666	12.7449	0.404638	1.22364
12.767	12.7444	0.402738	1.22422
12.7675	12.7439	0.401663	1.22328
12.768	12.7435	0.401425	1.22099
12.7684	12.743	0.403731	1.21967
12.7689	12.7425	0.403647	1.21852
12.7694	12.7421	0.403522	1.22342
12.7699	12.7416	0.401831	1.22133
12.7703	12.7411	0.402524	1.21777
12.7708	12.7407	0.402387	1.21788
12.7713	12.7402	0.403108	1.21755
12.7717	12.7397	0.403098	1.21895
12.7722	12.7392	0.401445	1.21683
12.7727	12.7388	0.402783	1.21508
12.7732	12.7383	0.401221	1.21369
12.7736	12.7378	0.402782	1.21136
12.7741	12.7374	0.40241	1.21432
12.7746	12.7369	0.400733	1.21331
12.7751	12.7364	0.401815	1.21004
12.7755	12.7359	0.402242	1.21026
12.776	12.7354	0.402739	1.20875
12.7765	12.735	0.402264	1.21012
12.7769	12.7345	0.401176	1.20623
12.7774	12.734	0.401508	1.2038
12.7779	12.7335	0.402155	1.19969
12.7784	12.7331	0.403265	1.19866
12.7788	12.7326	0.400854	1.19928
12.7793	12.7321	0.400892	1.19667
12.7798	12.7317	0.40113	1.19283
12.7802	12.7312	0.400685	1.19076
12.7807	12.7307	0.401194	1.18752
12.7812	12.7302	0.401808	1.18774
12.7817	12.7297	0.399285	1.17917
12.7821	12.7293	0.400775	1.17488
12.7826	12.7288	0.401075	1.168
12.7831	12.7284	0.399601	1.16184
12.7836	12.7279	0.400076	1.15429
12.784	12.7274	0.399738	1.14856
12.7845	12.7269	0.399245	1.13065
12.785	12.7265	0.397343	1.11476
12.7854	12.726	0.397483	1.09296
12.7859	12.7255	0.395518	1.06528
12.7864	12.725	0.392837	1.02694
12.7869	12.7246	0.392176	0.978577
12.7873	12.7241	0.395185	0.921642
12.7878	12.7236	0.395532	0.864473
12.7883	12.7231	0.397442	0.807621
12.7887	12.7227	0.398828	0.749779
12.7892	12.7222	0.398312	0.699135
12.7897	12.7218	0.400325	0.663166
12.7902	12.7213	0.399572	0.640153
12.7906	12.7208	0.400157	0.627193
12.7911	12.7203	0.399291	0.618615
12.7916	12.7199	0.39903	0.617914
12.7921	12.7194	0.398665	0.619219
12.7925	12.7189	0.398292	0.625288
12.793	12.7185	0.398965	0.631039
12.7935	12.718	0.396596	0.63382
12.7939	12.7175	0.399398	0.631382
12.7944	12.7171	0.398129	0.627988
12.7949	12.7166	0.398853	0.624678
12.7954	12.7161	0.399114	0.616121
12.7958	12.7156	0.398229	0.604844
12.7963	12.7151	0.398617	0.591049
12.7968	12.7147	0.399198	0.582247
12.7972	12.7142	0.398386	0.57028
12.7977	12.7137	0.399499	0.561693
12.7982	12.7133	0.398324	0.551331
12.7987	12.7128	0.3981	0.538895
12.7991	12.7123	0.399175	0.526832
12.7996	12.7119	0.397944	0.517252
12.8001	12.7114	0.398318	0.505487
12.8006	12.7109	0.397869	0.491234
12.801	12.7104	0.397511	0.47644
12.8015	12.71	0.39897	0.458856
12.802	12.7095	0.39902	0.444592
12.8024	12.709	0.397855	0.429098
12.8029	12.7086	0.397511	0.412397
12.8034	12.7081	0.397435	0.393191
12.8039	12.7076	0.3983	0.377792
12.8043	12.7071	0.398063	0.363132
12.8048	12.7066	0.397607	0.348148
12.8053	12.7062	0.397069	0.334244
12.8057	12.7057	0.396511	0.321472
12.8062	12.7052	0.399827	0.310537
12.8067	12.7047	0.396698	0.302059
12.8072	12.7042	0.396213	0.294698
12.8076	12.7038	0.39694	0.287033
12.8081	12.7033	0.397113	0.282675
12.8086	12.7028	0.397543	0.279505
12.8091	12.7024	0.396765	0.278697
12.8095	12.7019	0.398019	0.281587
12.81	12.7014	0.395609	0.28247
12.8105	12.701	0.395631	0.283714
12.8109	12.7005	0.397347	0.287683
12.8114	12.7	0.397235	0.292419
12.8119	12.6995	0.395641	0.296853
12.8124	12.6991	0.394825	0.301993
12.8128	12.6986	0.395899	0.302867
12.8133	12.6982	0.39649	0.308294
12.8138	12.6977	0.39634	0.313973
12.8142	12.6972	0.395636	0.318241
12.8147	12.6967	0.394912	0.319773
12.8152	12.6963	0.396011	0.321107
12.8157	12.6958	0.397961	0.320648
12.8161	12.6953	0.394471	0.32131
12.8166	12.6948	0.394799	0.320096
12.8171	12.6943	0.395272	0.317493
12.8176	12.6939	0.394986	0.313436
12.818	12.6934	0.395873	0.309064
12.8185	12.6929	0.395423	0.304605
12.819	12.6925	0.395022	0.301183
12.8194	12.692	0.393551	0.292892
12.8199	12.6916	0.394499	0.286395
12.8204	12.6911	0.397983	0.281397
12.8209	12.6906	0.395455	0.278178
12.8213	12.6901	0.39481	0.275383
12.8218	12.6897	0.395393	0.272575
12.8223	12.6892	0.393551	0.270448
12.8227	12.6887	0.39457	0.270539
12.8232	12.6883	0.394304	0.273242
12.8237	12.6878	0.39377	0.27656
12.8242	12.6873	0.393398	0.278667
12.8246	12.6868	0.392871	0.282308
12.8251	12.6864	0.393858	0.285966
12.8256	12.6859	0.392821	0.291573
12.8261	12.6854	0.391904	0.295495
12.8265	12.6849	0.391355	0.297886
12.827	12.6844	0.390511	0.300712
12.8275	12.684	0.392707	0.304979
12.8279	12.6835	0.393215	0.308077
12.8284	12.683	0.390972	0.311227
12.8289	12.6826	0.391316	0.314302
12.8294	12.6821	0.39001	0.315601
12.8298	12.6816	0.392929	0.318535
12.8303	12.6812	0.391269	0.323424
12.8308	12.6807	0.392195	0.327274
12.8312	12.6802	0.392604	0.329037
12.8317	12.6797	0.392635	0.330275
12.8322	12.6793	0.393729	0.331601
12.8327	12.6788	0.393205	0.33603
12.8331	12.6783	0.392576	0.337801
12.8336	12.6779	0.39272	0.337304
12.8341	12.6774	0.392316	0.337829
12.8346	12.6769	0.394129	0.337326
12.835	12.6764	0.392274	0.340266
12.8355	12.6759	0.391987	0.33939
12.836	12.6755	0.391804	0.338029
12.8364	12.675	0.391632	0.335358
12.8369	12.6745	0.392729	0.334815
12.8374	12.674	0.391996	0.335111
12.8379	12.6736	0.390329	0.335011
12.8383	12.6731	0.390623	0.331797
12.8388	12.6726	0.390663	0.329391
12.8393	12.6722	0.393186	0.328474
12.8397	12.6717	0.390945	0.328322
12.8402	12.6712	0.391902	0.327652
12.8407	12.6707	0.391174	0.324623
12.8412	12.6703	0.391626	0.319419
12.8416	12.6698	0.390937	0.318787
12.8421	12.6693	0.391509	0.318382
12.8426	12.6689	0.390868	0.315342
12.8431	12.6684	0.389514	0.311967
12.8435	12.668	0.390014	0.30728
12.844	12.6675	0.390875	0.306406
12.8445	12.667	0.391619	0.304865
12.8449	12.6665	0.388909	0.302501
12.8454	12.666	0.39065	0.299436
12.8459	12.6656	0.388054	0.295452
12.8464	12.6651	0.389267	0.294387
12.8468	12.6646	0.39119	0.29353
12.8473	12.6641	0.388672	0.29157
12.8478	12.6637	0.389484	0.288177
12.8482	12.6632	0.388901	0.28329
12.8487	12.6627	0.390797	0.284174
12.8492	12.6623	0.389884	0.284198
12.8497	12.6618	0.389069	0.280802
12.8501	12.6614	0.386501	0.278271
12.8506	12.6609	0.389055	0.275408
12.8511	12.6604	0.389133	0.274231
12.8516	12.6599	0.388556	0.273399
12.852	12.6595	0.387076	0.272234
12.8525	12.659	0.3871	0.268267
12.853	12.6585	0.387871	0.266165
12.8534	12.6581	0.390096	0.267857
12.8539	12.6576	0.391422	0.270324
12.8544	12.6571	0.387976	0.267749
12.8549	12.6566	0.385623	0.26659
12.8553	12.6562	0.388293	0.26557
12.8558	12.6557	0.388021	0.266748
12.8563	12.6552	0.388753	0.269116
12.8567	12.6547	0.386086	0.271654
12.8572	12.6542	0.386726	0.270994
12.8577	12.6538	0.388777	0.271856
12.8582	12.6533	0.387648	0.27459
12.8586	12.6528	0.388593	0.278178
12.8591	12.6524	0.386972	0.280411
12.8596	12.6519	0.387116	0.280888
12.8601	12.6514	0.389259	0.283823
12.8605	12.6509	0.388893	0.286407
12.861	12.6505	0.387319	0.291054
12.8615	12.65	0.388003	0.292548
12.8619	12.6495	0.386324	0.290993
12.8624	12.6491	0.387724	0.295432
12.8629	12.6486	0.387669	0.298041
12.8634	12.6481	0.386642	0.301687
12.8638	12.6476	0.387356	0.302846
12.8643	12.6472	0.385048	0.303624
12.8648	12.6467	0.38553	0.304482
12.8652	12.6462	0.384859	0.305894
12.8657	12.6457	0.38491	0.308852
12.8662	12.6452	0.38288	0.307958
12.8667	12.6448	0.382185	0.308635
12.8671	12.6443	0.384844	0.309646
12.8676	12.6438	0.386854	0.311751
12.8681	12.6433	0.387394	0.314893
12.8686	12.6429	0.387288	0.315481
12.869	12.6424	0.387568	0.314837
12.8695	12.642	0.387376	0.31476
12.87	12.6415	0.388203	0.317497
12.8704	12.641	0.38986	0.319337
12.8709	12.6405	0.388931	0.318243
12.8714	12.6401	0.38748	0.317351
12.8719	12.6396	0.390284	0.314644
12.8723	12.6391	0.388919	0.316132
12.8728	12.6387	0.390203	0.31665
12.8733	12.6382	0.388671	0.314959
12.8737	12.6377	0.387777	0.314
12.8742	12.6373	0.388982	0.31263
12.8747	12.6368	0.389105	0.31365
12.8752	12.6363	0.390185	0.31365
12.8756	12.6358	0.388138	0.31251
12.8761	12.6354	0.388104	0.310144
12.8766	12.6349	0.389926	0.310988
12.8771	12.6344	0.389312	0.311953
12.8775	12.6339	0.388906	0.311366
12.878	12.6335	0.389179	0.310108
12.8785	12.633	0.389631	0.30902
12.8789	12.6325	0.389545	0.309387
12.8794	12.6321	0.389479	0.310134
12.8799	12.6316	0.388998	0.311818
12.8804	12.6311	0.387938	0.311404
12.8808	12.6306	0.388394	0.308873
12.8813	12.6302	0.391475	0.31079
12.8818	12.6297	0.389476	0.311443
12.8822	12.6292	0.39075	0.313482
12.8827	12.6288	0.388562	0.311753
12.8832	12.6283	0.389221	0.31077
12.8837	12.6278	0.389334	0.308984
12.8841	12.6274	0.390618	0.311618
12.8846	12.6269	0.390509	0.313294
12.8851	12.6264	0.389817	0.312195
12.8856	12.6259	0.390939	0.309276
12.886	12.6254	0.39055	0.30819
12.8865	12.625	0.390074	0.308087
12.887	12.6245	0.389434	0.309569
12.8874	12.624	0.389082	0.309434
12.8879	12.6235	0.389885	0.306412
12.8884	12.6231	0.389829	0.305562
12.8889	12.6226	0.389648	0.305743
12.8893	12.6221	0.390356	0.307497
12.8898	12.6217	0.390132	0.306379
12.8903	12.6212	0.387715	0.303014
12.8907	12.6207	0.39013	0.303598
12.8912	12.6202	0.389682	0.302861
12.8917	12.6198	0.390048	0.303791
12.8922	12.6193	0.387888	0.302319
12.8926	12.6188	0.388408	0.302352
12.8931	12.6184	0.38915	0.300771
12.8936	12.6179	0.388767	0.303605
12.8941	12.6174	0.390451	0.305021
12.8945	12.6169	0.388502	0.302918
12.895	12.6165	0.387607	0.302018
12.8955	12.616	0.390408	0.302443
12.8959	12.6155	0.390181	0.302934
12.8964	12.615	0.38866	0.302449
12.8969	12.6145	0.390608	0.301464
12.8974	12.6141	0.388112	0.300103
12.8978	12.6136	0.389931	0.300543
12.8983	12.6131	0.388851	0.300615
12.8988	12.6127	0.390094	0.301351
