# 1304     AichiSR QXAFS
# Start     : 8.9544
# End       : 9.0544
# Dir       : Forward
# Points    : 300
# ScanTime  : 1.01549
# Date      : 13.04.23 22:27
# Ring Cur. : 25.4[mA]
12.7557	12.7557	0.395826	1.20832
12.7562	12.7553	0.396304	1.20591
12.7566	12.7548	0.396269	1.20174
12.7571	12.7543	0.397489	1.205
12.7576	12.7538	0.39874	1.21019
12.7581	12.7534	0.394514	1.2086
12.7585	12.7529	0.397267	1.20639
12.759	12.7524	0.39643	1.20518
12.7595	12.752	0.398011	1.20746
12.7599	12.7515	0.395893	1.21149
12.7604	12.751	0.397366	1.21278
12.7609	12.7506	0.396461	1.20886
12.7614	12.7501	0.396686	1.20762
12.7618	12.7496	0.39824	1.20804
12.7623	12.7492	0.397681	1.20938
12.7628	12.7487	0.396016	1.21205
12.7632	12.7482	0.397177	1.2097
12.7637	12.7478	0.396369	1.2071
12.7642	12.7473	0.398494	1.20513
12.7647	12.7468	0.398784	1.21113
12.7651	12.7463	0.398941	1.211
12.7656	12.7459	0.397773	1.20855
12.7661	12.7454	0.397516	1.20798
12.7666	12.7449	0.39807	1.20904
12.767	12.7444	0.398761	1.21233
12.7675	12.744	0.398724	1.21039
12.768	12.7435	0.398149	1.21037
12.7684	12.743	0.397203	1.2071
12.7689	12.7426	0.397199	1.20575
12.7694	12.7421	0.398797	1.20812
12.7699	12.7416	0.395936	1.20972
12.7703	12.7412	0.397655	1.20685
12.7708	12.7407	0.397701	1.20333
12.7713	12.7402	0.39835	1.20264
12.7717	12.7397	0.398481	1.20802
12.7722	12.7393	0.397427	1.20403
12.7727	12.7388	0.399676	1.20766
12.7732	12.7383	0.397248	1.20265
12.7736	12.7379	0.398607	1.20035
12.7741	12.7374	0.399187	1.20492
12.7746	12.7369	0.39735	1.20282
12.7751	12.7364	0.398899	1.19937
12.7755	12.7359	0.397943	1.19842
12.776	12.7355	0.398626	1.19856
12.7765	12.735	0.398611	1.20106
12.7769	12.7345	0.398127	1.19919
12.7774	12.734	0.398158	1.19378
12.7779	12.7335	0.397957	1.19443
12.7784	12.7331	0.398542	1.18919
12.7788	12.7326	0.39914	1.19117
12.7793	12.7321	0.3964	1.19035
12.7798	12.7317	0.398123	1.18449
12.7802	12.7312	0.397454	1.18034
12.7807	12.7307	0.399574	1.18
12.7812	12.7302	0.398779	1.1793
12.7817	12.7298	0.397635	1.17101
12.7821	12.7293	0.398186	1.17067
12.7826	12.7288	0.398635	1.16224
12.7831	12.7284	0.396768	1.15489
12.7836	12.7279	0.397689	1.1495
12.784	12.7274	0.396885	1.14088
12.7845	12.727	0.3958	1.1241
12.785	12.7265	0.397389	1.10591
12.7854	12.726	0.393305	1.08702
12.7859	12.7255	0.394274	1.0588
12.7864	12.725	0.391904	1.02397
12.7869	12.7246	0.391089	0.974968
12.7873	12.7241	0.392419	0.919986
12.7878	12.7236	0.393636	0.859147
12.7883	12.7232	0.396266	0.80025
12.7887	12.7227	0.396708	0.744463
12.7892	12.7222	0.397552	0.691298
12.7897	12.7218	0.396509	0.655902
12.7902	12.7213	0.398102	0.633664
12.7906	12.7208	0.398409	0.62276
12.7911	12.7204	0.397238	0.617032
12.7916	12.7199	0.398592	0.614654
12.7921	12.7194	0.398214	0.617679
12.7925	12.719	0.399127	0.624355
12.793	12.7185	0.398807	0.629331
12.7935	12.718	0.397643	0.632894
12.7939	12.7176	0.396485	0.630982
12.7944	12.7171	0.398018	0.628387
12.7949	12.7166	0.39835	0.622453
12.7954	12.7161	0.398214	0.615003
12.7958	12.7156	0.396442	0.603739
12.7963	12.7152	0.396706	0.590587
12.7968	12.7147	0.398698	0.578707
12.7972	12.7142	0.398549	0.568372
12.7977	12.7137	0.398309	0.561004
12.7982	12.7133	0.397519	0.551444
12.7987	12.7128	0.397051	0.538332
12.7991	12.7123	0.397852	0.527255
12.7996	12.7119	0.397929	0.516575
12.8001	12.7114	0.398592	0.506476
12.8006	12.7109	0.395995	0.48924
12.801	12.7104	0.398114	0.473944
12.8015	12.71	0.399325	0.460133
12.802	12.7095	0.397636	0.44384
12.8024	12.709	0.399759	0.429037
12.8029	12.7086	0.397166	0.41125
12.8034	12.7081	0.397241	0.39161
12.8039	12.7076	0.397755	0.376152
12.8043	12.7072	0.39914	0.360852
12.8048	12.7067	0.397373	0.348367
12.8053	12.7062	0.397576	0.334658
12.8057	12.7057	0.397977	0.31906
12.8062	12.7052	0.397912	0.310444
12.8067	12.7047	0.397791	0.299771
12.8072	12.7043	0.397851	0.294213
12.8076	12.7038	0.397547	0.288244
12.8081	12.7033	0.396909	0.281054
12.8086	12.7029	0.398408	0.278351
12.8091	12.7024	0.397087	0.279384
12.8095	12.7019	0.397612	0.280633
12.81	12.7015	0.39562	0.281803
12.8105	12.701	0.397313	0.284681
12.8109	12.7005	0.397792	0.288161
12.8114	12.7	0.397549	0.29271
12.8119	12.6996	0.397909	0.298766
12.8124	12.6991	0.397267	0.303017
12.8128	12.6986	0.39502	0.305444
12.8133	12.6982	0.39742	0.308961
12.8138	12.6977	0.396523	0.313484
12.8142	12.6972	0.39706	0.318416
12.8147	12.6968	0.395181	0.319306
12.8152	12.6963	0.395711	0.320867
12.8157	12.6958	0.396587	0.320051
12.8161	12.6953	0.395397	0.320628
12.8166	12.6948	0.397031	0.321639
12.8171	12.6944	0.395958	0.318853
12.8176	12.6939	0.394855	0.313121
12.818	12.6934	0.396583	0.3073
12.8185	12.693	0.395377	0.303643
12.819	12.6925	0.394852	0.299658
12.8194	12.692	0.395541	0.293336
12.8199	12.6916	0.3965	0.286258
12.8204	12.6911	0.39668	0.280493
12.8209	12.6906	0.395538	0.276904
12.8213	12.6901	0.39587	0.275354
12.8218	12.6897	0.394911	0.273035
12.8223	12.6892	0.394347	0.271026
12.8227	12.6888	0.396252	0.271086
12.8232	12.6883	0.39385	0.272551
12.8237	12.6878	0.393634	0.277027
12.8242	12.6873	0.392473	0.280139
12.8246	12.6869	0.394492	0.282056
12.8251	12.6864	0.394037	0.285699
12.8256	12.6859	0.392199	0.291311
12.8261	12.6854	0.393435	0.297984
12.8265	12.6849	0.392226	0.299863
12.827	12.6845	0.391345	0.301346
12.8275	12.684	0.393784	0.305755
12.8279	12.6835	0.391471	0.310067
12.8284	12.683	0.392403	0.313544
12.8289	12.6826	0.392171	0.315171
12.8294	12.6821	0.391648	0.317785
12.8298	12.6817	0.393633	0.320216
12.8303	12.6812	0.392672	0.323948
12.8308	12.6807	0.393343	0.327761
12.8312	12.6802	0.393172	0.330991
12.8317	12.6797	0.392872	0.331845
12.8322	12.6793	0.394345	0.333925
12.8327	12.6788	0.394554	0.33667
12.8331	12.6784	0.393112	0.33935
12.8336	12.6779	0.394038	0.34007
12.8341	12.6774	0.392607	0.338112
12.8346	12.6769	0.395621	0.339016
12.835	12.6764	0.392496	0.338324
12.8355	12.676	0.393072	0.340282
12.836	12.6755	0.392901	0.33831
12.8364	12.675	0.391561	0.335076
12.8369	12.6745	0.392213	0.335793
12.8374	12.674	0.393442	0.336062
12.8379	12.6736	0.392755	0.335405
12.8383	12.6731	0.393331	0.333389
12.8388	12.6726	0.392027	0.332151
12.8393	12.6722	0.393416	0.329355
12.8397	12.6717	0.392323	0.329
12.8402	12.6712	0.392513	0.327865
12.8407	12.6708	0.39362	0.325467
12.8412	12.6703	0.392222	0.322431
12.8416	12.6698	0.394653	0.321141
12.8421	12.6694	0.394386	0.319735
12.8426	12.6689	0.392899	0.317827
12.8431	12.6684	0.392074	0.315262
12.8435	12.668	0.391396	0.310149
12.844	12.6675	0.393124	0.308147
12.8445	12.667	0.390515	0.305635
12.8449	12.6665	0.391022	0.302853
12.8454	12.6661	0.392299	0.300962
12.8459	12.6656	0.391713	0.297256
12.8464	12.6651	0.39389	0.297213
12.8468	12.6646	0.39245	0.295526
12.8473	12.6642	0.392053	0.293171
12.8478	12.6637	0.390222	0.289674
12.8482	12.6632	0.390974	0.287388
12.8487	12.6628	0.391495	0.285515
12.8492	12.6623	0.391747	0.283237
12.8497	12.6618	0.390496	0.282966
12.8501	12.6614	0.390746	0.279672
12.8506	12.6609	0.390728	0.275682
12.8511	12.6604	0.392019	0.275353
12.8516	12.6599	0.390031	0.274965
12.852	12.6595	0.390371	0.273585
12.8525	12.659	0.389375	0.270769
12.853	12.6585	0.39104	0.269948
12.8534	12.6581	0.392867	0.268567
12.8539	12.6576	0.390264	0.267355
12.8544	12.6571	0.39006	0.269169
12.8549	12.6566	0.388845	0.267701
12.8553	12.6562	0.389678	0.266686
12.8558	12.6557	0.390701	0.26966
12.8563	12.6552	0.389646	0.271189
12.8567	12.6547	0.388887	0.273074
12.8572	12.6543	0.389124	0.273948
12.8577	12.6538	0.38936	0.274219
12.8582	12.6533	0.390956	0.277011
12.8586	12.6528	0.390699	0.280499
12.8591	12.6524	0.388987	0.282054
12.8596	12.6519	0.388544	0.282915
12.8601	12.6514	0.389741	0.284422
12.8605	12.651	0.390717	0.28786
12.861	12.6505	0.390204	0.290978
12.8615	12.65	0.389706	0.293242
12.8619	12.6495	0.388943	0.294733
12.8624	12.6491	0.387733	0.296066
12.8629	12.6486	0.390802	0.298159
12.8634	12.6481	0.38781	0.302671
12.8638	12.6477	0.387628	0.303985
12.8643	12.6472	0.38675	0.304142
12.8648	12.6467	0.385255	0.30415
12.8652	12.6462	0.385761	0.305795
12.8657	12.6457	0.385713	0.308086
12.8662	12.6453	0.384261	0.30918
12.8667	12.6448	0.384936	0.309976
12.8671	12.6443	0.385632	0.31072
12.8676	12.6438	0.38662	0.312297
12.8681	12.6434	0.384644	0.312345
12.8686	12.6429	0.385221	0.313706
12.869	12.6424	0.384901	0.31488
12.8695	12.642	0.385154	0.31333
12.87	12.6415	0.387794	0.315709
12.8704	12.641	0.388037	0.316276
12.8709	12.6406	0.386876	0.316496
12.8714	12.6401	0.386988	0.313129
12.8719	12.6396	0.387881	0.313152
12.8723	12.6392	0.38682	0.314428
12.8728	12.6387	0.385816	0.314446
12.8733	12.6382	0.384924	0.313844
12.8737	12.6378	0.385825	0.311743
12.8742	12.6373	0.385941	0.309778
12.8747	12.6368	0.385852	0.308605
12.8752	12.6363	0.384881	0.309655
12.8756	12.6359	0.384882	0.309612
12.8761	12.6354	0.383996	0.307028
12.8766	12.6349	0.383772	0.307526
12.8771	12.6344	0.386684	0.306882
12.8775	12.634	0.385951	0.308252
12.878	12.6335	0.382969	0.307543
12.8785	12.633	0.385041	0.304654
12.8789	12.6326	0.383108	0.303419
12.8794	12.6321	0.384192	0.30607
12.8799	12.6316	0.384293	0.30651
12.8804	12.6311	0.382452	0.306975
12.8808	12.6307	0.383197	0.305079
12.8813	12.6302	0.384469	0.307025
12.8818	12.6297	0.385059	0.306575
12.8822	12.6293	0.385055	0.308288
12.8827	12.6288	0.383312	0.306974
12.8832	12.6283	0.382645	0.307499
12.8837	12.6279	0.383964	0.306159
12.8841	12.6274	0.383675	0.305803
12.8846	12.6269	0.383506	0.307563
12.8851	12.6264	0.381262	0.306087
12.8856	12.6259	0.381631	0.30364
12.886	12.6255	0.381176	0.303119
12.8865	12.625	0.387746	0.306324
12.887	12.6245	0.385682	0.306294
12.8874	12.624	0.381803	0.303466
12.8879	12.6235	0.383595	0.302151
12.8884	12.6231	0.382827	0.299521
12.8889	12.6226	0.382814	0.300242
12.8893	12.6221	0.384494	0.299657
12.8898	12.6217	0.381734	0.298538
12.8903	12.6212	0.381727	0.29663
12.8907	12.6207	0.382048	0.29721
12.8912	12.6202	0.382131	0.296951
12.8917	12.6198	0.382553	0.297898
12.8922	12.6193	0.380893	0.297268
12.8926	12.6188	0.380638	0.295203
12.8931	12.6184	0.38375	0.296242
12.8936	12.6179	0.382224	0.295387
12.8941	12.6174	0.381606	0.29766
12.8945	12.6169	0.380768	0.297223
12.895	12.6165	0.381059	0.295183
12.8955	12.616	0.381212	0.295608
12.8959	12.6155	0.381146	0.29635
12.8964	12.615	0.38092	0.29617
12.8969	12.6146	0.380379	0.296208
12.8974	12.6141	0.381037	0.295256
12.8978	12.6136	0.38107	0.293243
12.8983	12.6132	0.381136	0.29443
12.8988	12.6127	0.383125	0.29453
