# 1304     AichiSR QXAFS
# Start     : 8.9544
# End       : 9.0544
# Dir       : Backward
# Points    : 300
# ScanTime  : 1.01549
# Date      : 13.04.23 22:32
# Ring Cur. : 25.7[mA]
12.7557	12.6118	0.310407	0.236687
12.7562	12.6123	0.3116	0.236717
12.7566	12.6128	0.312248	0.240552
12.7571	12.6132	0.31184	0.241245
12.7576	12.6137	0.311115	0.241014
12.7581	12.6141	0.310599	0.240488
12.7585	12.6146	0.313747	0.242144
12.759	12.6151	0.312442	0.241436
12.7595	12.6156	0.314222	0.244679
12.7599	12.6161	0.311977	0.24522
12.7604	12.6165	0.312048	0.242816
12.7609	12.617	0.313008	0.243053
12.7614	12.6175	0.312888	0.244321
12.7618	12.618	0.315422	0.245867
12.7623	12.6184	0.310461	0.244152
12.7628	12.6189	0.31201	0.24215
12.7632	12.6194	0.314933	0.243321
12.7637	12.6198	0.315398	0.245677
12.7642	12.6203	0.313527	0.24492
12.7647	12.6208	0.311409	0.244743
12.7651	12.6213	0.311959	0.2438
12.7656	12.6217	0.31488	0.243749
12.7661	12.6222	0.314518	0.246051
12.7666	12.6227	0.315031	0.246988
12.767	12.6231	0.312919	0.246953
12.7675	12.6236	0.311476	0.244523
12.768	12.6241	0.316101	0.248016
12.7684	12.6246	0.314942	0.248294
12.7689	12.625	0.31198	0.248958
12.7694	12.6255	0.31386	0.251197
12.7699	12.626	0.31236	0.249494
12.7703	12.6265	0.314773	0.250041
12.7708	12.627	0.313953	0.250837
12.7713	12.6274	0.316551	0.253237
12.7717	12.6279	0.311623	0.251184
12.7722	12.6284	0.310762	0.249452
12.7727	12.6289	0.315866	0.25249
12.7732	12.6293	0.316659	0.252543
12.7736	12.6298	0.314437	0.252784
12.7741	12.6302	0.314595	0.252932
12.7746	12.6307	0.312563	0.25103
12.7751	12.6312	0.314765	0.250038
12.7755	12.6317	0.316297	0.252361
12.776	12.6321	0.315894	0.253252
12.7765	12.6326	0.315488	0.252016
12.7769	12.6331	0.313222	0.249539
12.7774	12.6335	0.317795	0.251211
12.7779	12.634	0.315325	0.251218
12.7784	12.6345	0.314945	0.253708
12.7788	12.635	0.315377	0.253456
12.7793	12.6354	0.313682	0.25086
12.7798	12.6359	0.314704	0.251857
12.7802	12.6364	0.315906	0.254288
12.7807	12.6369	0.315526	0.254625
12.7812	12.6373	0.313783	0.255411
12.7817	12.6378	0.314484	0.253637
12.7821	12.6383	0.317404	0.255072
12.7826	12.6387	0.315563	0.257823
12.7831	12.6392	0.315437	0.259179
12.7836	12.6397	0.316933	0.259836
12.784	12.6401	0.315034	0.256715
12.7845	12.6406	0.31661	0.257155
12.785	12.6411	0.318896	0.25988
12.7854	12.6416	0.319177	0.261186
12.7859	12.642	0.316404	0.259264
12.7864	12.6425	0.314853	0.257583
12.7869	12.6429	0.317603	0.2584
12.7873	12.6434	0.316334	0.257543
12.7878	12.6439	0.315758	0.258288
12.7883	12.6443	0.314905	0.256715
12.7887	12.6448	0.314436	0.255579
12.7892	12.6453	0.314974	0.252061
12.7897	12.6458	0.317663	0.25505
12.7902	12.6463	0.317307	0.255268
12.7906	12.6468	0.315666	0.252746
12.7911	12.6472	0.315446	0.250049
12.7916	12.6477	0.319779	0.249489
12.7921	12.6482	0.316427	0.249128
12.7925	12.6487	0.316634	0.247755
12.793	12.6491	0.319513	0.247788
12.7935	12.6496	0.317196	0.242218
12.7939	12.6501	0.317882	0.240619
12.7944	12.6505	0.318944	0.241792
12.7949	12.651	0.320522	0.241157
12.7954	12.6515	0.318757	0.237194
12.7958	12.652	0.319512	0.234098
12.7963	12.6524	0.322712	0.233529
12.7968	12.6529	0.320032	0.23242
12.7972	12.6534	0.32039	0.230926
12.7977	12.6538	0.320772	0.229426
12.7982	12.6543	0.319596	0.227459
12.7987	12.6548	0.320099	0.224898
12.7991	12.6553	0.319559	0.224196
12.7996	12.6558	0.320375	0.224778
12.8001	12.6562	0.318925	0.221925
12.8006	12.6567	0.318006	0.220149
12.801	12.6572	0.321455	0.220371
12.8015	12.6577	0.319436	0.220176
12.802	12.6581	0.320466	0.222293
12.8024	12.6586	0.321734	0.222055
12.8029	12.6591	0.318492	0.220038
12.8034	12.6595	0.321354	0.221351
12.8039	12.66	0.321102	0.224935
12.8043	12.6605	0.322407	0.226333
12.8048	12.6609	0.31906	0.225438
12.8053	12.6614	0.321703	0.227891
12.8057	12.6619	0.323746	0.229984
12.8062	12.6624	0.322429	0.231635
12.8067	12.6628	0.321802	0.235338
12.8072	12.6633	0.322149	0.235816
12.8076	12.6637	0.320315	0.234877
12.8081	12.6642	0.32109	0.237109
12.8086	12.6647	0.321955	0.240984
12.8091	12.6652	0.323106	0.243103
12.8095	12.6656	0.320226	0.242614
12.81	12.6661	0.320432	0.244027
12.8105	12.6666	0.324551	0.247049
12.8109	12.6671	0.321813	0.25027
12.8114	12.6676	0.322516	0.252501
12.8119	12.668	0.322925	0.253629
12.8124	12.6685	0.322778	0.253719
12.8128	12.669	0.323312	0.256774
12.8133	12.6694	0.323508	0.260243
12.8138	12.6699	0.323484	0.264057
12.8142	12.6703	0.322038	0.263055
12.8147	12.6708	0.319031	0.263115
12.8152	12.6713	0.324376	0.266256
12.8157	12.6718	0.320969	0.269466
12.8161	12.6722	0.321713	0.269967
12.8166	12.6727	0.322108	0.271914
12.8171	12.6732	0.32186	0.270403
12.8176	12.6736	0.321636	0.273096
12.818	12.6741	0.322022	0.275618
12.8185	12.6746	0.323739	0.278435
12.819	12.6751	0.321167	0.275597
12.8194	12.6755	0.322125	0.275238
12.8199	12.676	0.325055	0.278876
12.8204	12.6765	0.324056	0.278946
12.8209	12.677	0.321738	0.279817
12.8213	12.6775	0.322234	0.278856
12.8218	12.6779	0.320852	0.276598
12.8223	12.6784	0.321723	0.275599
12.8227	12.6789	0.32193	0.279083
12.8232	12.6793	0.321456	0.277916
12.8237	12.6798	0.321416	0.274417
12.8242	12.6803	0.32246	0.271818
12.8246	12.6808	0.324266	0.272091
12.8251	12.6812	0.324439	0.269973
12.8256	12.6817	0.321671	0.267641
12.8261	12.6822	0.322659	0.265152
12.8265	12.6826	0.321616	0.260098
12.827	12.6831	0.322041	0.257828
12.8275	12.6836	0.321592	0.256538
12.8279	12.6841	0.321508	0.255722
12.8284	12.6845	0.319843	0.251492
12.8289	12.685	0.319988	0.247321
12.8294	12.6855	0.325656	0.247632
12.8298	12.686	0.326539	0.247166
12.8303	12.6865	0.32221	0.24188
12.8308	12.6869	0.323191	0.237094
12.8312	12.6874	0.323126	0.232621
12.8317	12.6879	0.323704	0.229557
12.8322	12.6884	0.325934	0.229213
12.8327	12.6888	0.324353	0.226609
12.8331	12.6893	0.323911	0.223206
12.8336	12.6897	0.323797	0.221843
12.8341	12.6902	0.324663	0.223236
12.8346	12.6907	0.324216	0.225685
12.835	12.6912	0.323134	0.22714
12.8355	12.6916	0.322731	0.230297
12.836	12.6921	0.322228	0.231952
12.8364	12.6926	0.323631	0.23748
12.8369	12.693	0.324332	0.244183
12.8374	12.6935	0.322361	0.248818
12.8379	12.694	0.323264	0.252097
12.8383	12.6944	0.323805	0.255387
12.8388	12.6949	0.325527	0.259426
12.8393	12.6954	0.326072	0.263656
12.8397	12.6959	0.324396	0.263405
12.8402	12.6963	0.324927	0.264213
12.8407	12.6968	0.324396	0.262923
12.8412	12.6973	0.322956	0.261471
12.8416	12.6978	0.324297	0.263289
12.8421	12.6982	0.325864	0.259888
12.8426	12.6987	0.323173	0.254969
12.8431	12.6992	0.324004	0.250842
12.8435	12.6996	0.324527	0.249227
12.844	12.7001	0.323597	0.24548
12.8445	12.7006	0.324756	0.242968
12.8449	12.701	0.325236	0.238341
12.8454	12.7015	0.326455	0.233678
12.8459	12.702	0.324998	0.230984
12.8464	12.7024	0.327648	0.231782
12.8468	12.7029	0.326974	0.232445
12.8473	12.7034	0.325607	0.228433
12.8478	12.7039	0.325198	0.22956
12.8482	12.7043	0.326631	0.234836
12.8487	12.7048	0.328017	0.241203
12.8492	12.7053	0.326535	0.247668
12.8497	12.7058	0.327767	0.254081
12.8501	12.7063	0.326325	0.26113
12.8506	12.7067	0.326834	0.270799
12.8511	12.7072	0.328352	0.284558
12.8516	12.7077	0.330228	0.300097
12.852	12.7082	0.32791	0.308678
12.8525	12.7086	0.328875	0.321728
12.853	12.7091	0.329336	0.338168
12.8534	12.7096	0.329581	0.353589
12.8539	12.71	0.330567	0.368901
12.8544	12.7105	0.329539	0.379734
12.8549	12.711	0.330246	0.391983
12.8553	12.7115	0.328365	0.401922
12.8558	12.7119	0.329803	0.4177
12.8563	12.7124	0.329297	0.430721
12.8567	12.7129	0.32851	0.436751
12.8572	12.7133	0.328274	0.443991
12.8577	12.7138	0.329104	0.454951
12.8582	12.7143	0.329909	0.464629
12.8586	12.7148	0.329846	0.47341
12.8591	12.7152	0.332045	0.480345
12.8596	12.7157	0.330979	0.490295
12.8601	12.7162	0.330653	0.500228
12.8605	12.7167	0.330756	0.509629
12.861	12.7171	0.331759	0.522591
12.8615	12.7176	0.330185	0.522249
12.8619	12.7181	0.331249	0.524009
12.8624	12.7186	0.33031	0.524824
12.8629	12.719	0.329	0.522318
12.8634	12.7195	0.327926	0.519899
12.8638	12.7199	0.329906	0.51459
12.8643	12.7204	0.330366	0.510737
12.8648	12.7209	0.327612	0.508581
12.8652	12.7214	0.330334	0.514514
12.8657	12.7218	0.330805	0.52732
12.8662	12.7223	0.32929	0.538323
12.8667	12.7228	0.331657	0.565769
12.8671	12.7232	0.329523	0.602512
12.8676	12.7237	0.328373	0.647615
12.8681	12.7242	0.328286	0.700304
12.8686	12.7246	0.327109	0.755371
12.869	12.7251	0.326563	0.798225
12.8695	12.7256	0.323586	0.833724
12.87	12.7261	0.328057	0.876925
12.8704	12.7265	0.328322	0.905189
12.8709	12.727	0.327792	0.915203
12.8714	12.7275	0.329873	0.932561
12.8719	12.728	0.329945	0.94694
12.8723	12.7284	0.328394	0.952371
12.8728	12.7289	0.330022	0.963295
12.8733	12.7294	0.33332	0.972663
12.8737	12.7298	0.333163	0.97038
12.8742	12.7303	0.330549	0.970565
12.8747	12.7308	0.331733	0.981661
12.8752	12.7313	0.332362	0.988837
12.8756	12.7318	0.330042	0.984556
12.8761	12.7322	0.332568	0.985751
12.8766	12.7327	0.330445	0.987012
12.8771	12.7331	0.331427	0.989876
12.8775	12.7336	0.33239	0.9948
12.878	12.7341	0.331073	0.996918
12.8785	12.7346	0.331518	0.99518
12.8789	12.7351	0.331132	0.996647
12.8794	12.7355	0.332312	1.00351
12.8799	12.736	0.333766	1.00862
12.8804	12.7365	0.333019	1.00565
12.8808	12.737	0.336629	1.00436
12.8813	12.7375	0.333277	1.00744
12.8818	12.7379	0.333901	1.00633
12.8822	12.7384	0.333171	1.00841
12.8827	12.7389	0.332997	1.01089
12.8832	12.7393	0.334831	1.01082
12.8837	12.7398	0.332161	1.00707
12.8841	12.7403	0.333035	1.0096
12.8846	12.7407	0.334181	1.018
12.8851	12.7412	0.333373	1.01183
12.8856	12.7417	0.336759	1.01305
12.886	12.7422	0.335083	1.01163
12.8865	12.7426	0.334323	1.01976
12.887	12.7431	0.334242	1.01887
12.8874	12.7436	0.335578	1.02066
12.8879	12.744	0.336053	1.01898
12.8884	12.7445	0.334335	1.01674
12.8889	12.745	0.335589	1.02166
12.8893	12.7455	0.336441	1.02215
12.8898	12.7459	0.335316	1.01669
12.8903	12.7464	0.335815	1.02089
12.8907	12.7469	0.336498	1.02273
12.8912	12.7474	0.334329	1.02034
12.8917	12.7478	0.335535	1.02228
12.8922	12.7483	0.337086	1.02782
12.8926	12.7488	0.338659	1.0252
12.8931	12.7492	0.336281	1.0239
12.8936	12.7497	0.33768	1.03245
12.8941	12.7502	0.337075	1.0303
12.8945	12.7506	0.335211	1.02172
12.895	12.7511	0.338825	1.02581
12.8955	12.7516	0.338617	1.02828
12.8959	12.7521	0.33573	1.02469
12.8964	12.7525	0.335733	1.02361
12.8969	12.753	0.337645	1.02813
12.8974	12.7534	0.337882	1.02487
12.8978	12.7539	0.335454	1.02367
12.8983	12.7544	0.337131	1.0303
12.8988	12.7549	0.338376	1.03268
