# 1304     AichiSR QXAFS
# Start     : 8.9544
# End       : 9.0544
# Dir       : Backward
# Points    : 300
# ScanTime  : 1.01549
# Date      : 13.04.23 22:31
# Ring Cur. : 25.6[mA]
12.7557	12.6118	0.302265	0.231297
12.7562	12.6123	0.300225	0.232392
12.7566	12.6127	0.301877	0.231478
12.7571	12.6132	0.302966	0.233107
12.7576	12.6137	0.3029	0.232544
12.7581	12.6141	0.301492	0.234131
12.7585	12.6146	0.30196	0.235165
12.759	12.6151	0.300837	0.233888
12.7595	12.6156	0.302475	0.234694
12.7599	12.616	0.305736	0.237162
12.7604	12.6165	0.304729	0.237516
12.7609	12.617	0.303306	0.237258
12.7614	12.6175	0.305568	0.236545
12.7618	12.618	0.307424	0.238505
12.7623	12.6184	0.305134	0.236978
12.7628	12.6189	0.307	0.238221
12.7632	12.6194	0.304926	0.239662
12.7637	12.6198	0.304396	0.237168
12.7642	12.6203	0.304228	0.236689
12.7647	12.6208	0.306186	0.238841
12.7651	12.6213	0.304788	0.238765
12.7656	12.6217	0.301454	0.236616
12.7661	12.6222	0.304853	0.23846
12.7666	12.6227	0.305299	0.238058
12.767	12.6231	0.306287	0.240698
12.7675	12.6236	0.305811	0.241605
12.768	12.6241	0.306002	0.243614
12.7684	12.6245	0.304374	0.241044
12.7689	12.625	0.306504	0.242134
12.7694	12.6255	0.308629	0.24461
12.7699	12.626	0.30627	0.244231
12.7703	12.6265	0.30476	0.244921
12.7708	12.6269	0.305871	0.244021
12.7713	12.6274	0.306973	0.244393
12.7717	12.6279	0.305045	0.245814
12.7722	12.6284	0.306478	0.245755
12.7727	12.6288	0.305345	0.246256
12.7732	12.6293	0.306597	0.244888
12.7736	12.6298	0.30761	0.245929
12.7741	12.6302	0.307834	0.246615
12.7746	12.6307	0.308835	0.247688
12.7751	12.6312	0.306614	0.248276
12.7755	12.6317	0.308169	0.24712
12.776	12.6321	0.308839	0.244694
12.7765	12.6326	0.308895	0.246226
12.7769	12.6331	0.309834	0.247991
12.7774	12.6335	0.307162	0.246972
12.7779	12.634	0.30858	0.245665
12.7784	12.6345	0.310836	0.246159
12.7788	12.6349	0.308995	0.247635
12.7793	12.6354	0.308801	0.247805
12.7798	12.6359	0.308013	0.248534
12.7802	12.6364	0.309115	0.248156
12.7807	12.6368	0.309811	0.246769
12.7812	12.6373	0.309083	0.249233
12.7817	12.6378	0.310554	0.253008
12.7821	12.6383	0.310511	0.252924
12.7826	12.6387	0.309994	0.251554
12.7831	12.6392	0.311242	0.251946
12.7836	12.6397	0.310848	0.254168
12.784	12.6401	0.310103	0.253383
12.7845	12.6406	0.30807	0.253088
12.785	12.6411	0.310816	0.252194
12.7854	12.6416	0.313119	0.252865
12.7859	12.642	0.308459	0.252661
12.7864	12.6425	0.310626	0.254696
12.7869	12.6429	0.310267	0.25523
12.7873	12.6434	0.310541	0.251426
12.7878	12.6439	0.311547	0.251533
12.7883	12.6443	0.310155	0.252442
12.7887	12.6448	0.310546	0.253726
12.7892	12.6453	0.308234	0.24943
12.7897	12.6458	0.309581	0.24834
12.7902	12.6463	0.310794	0.247977
12.7906	12.6467	0.310413	0.246951
12.7911	12.6472	0.31012	0.248232
12.7916	12.6477	0.310802	0.246823
12.7921	12.6482	0.311283	0.244363
12.7925	12.6486	0.31198	0.242211
12.793	12.6491	0.312459	0.243491
12.7935	12.6496	0.313462	0.241359
12.7939	12.65	0.310737	0.239211
12.7944	12.6505	0.312404	0.23565
12.7949	12.651	0.314748	0.23577
12.7954	12.6515	0.314138	0.233311
12.7958	12.652	0.313407	0.231896
12.7963	12.6524	0.314217	0.230812
12.7968	12.6529	0.313982	0.227292
12.7972	12.6534	0.315449	0.224635
12.7977	12.6538	0.315105	0.225124
12.7982	12.6543	0.315005	0.224607
12.7987	12.6548	0.313262	0.222197
12.7991	12.6553	0.314699	0.220542
12.7996	12.6557	0.317271	0.218632
12.8001	12.6562	0.314164	0.218822
12.8006	12.6567	0.314778	0.218141
12.801	12.6572	0.314203	0.217478
12.8015	12.6577	0.314458	0.214957
12.802	12.6581	0.315963	0.216931
12.8024	12.6586	0.315882	0.218119
12.8029	12.6591	0.313762	0.218606
12.8034	12.6595	0.313772	0.2186
12.8039	12.66	0.315035	0.218791
12.8043	12.6604	0.318634	0.221816
12.8048	12.6609	0.313758	0.222899
12.8053	12.6614	0.316336	0.224898
12.8057	12.6619	0.315169	0.226106
12.8062	12.6623	0.315652	0.225195
12.8067	12.6628	0.317727	0.228344
12.8072	12.6633	0.317758	0.232212
12.8076	12.6637	0.316498	0.232803
12.8081	12.6642	0.316347	0.232856
12.8086	12.6647	0.317032	0.234575
12.8091	12.6652	0.320165	0.238294
12.8095	12.6656	0.316787	0.239121
12.81	12.6661	0.317404	0.243027
12.8105	12.6666	0.316853	0.242784
12.8109	12.6671	0.316136	0.242286
12.8114	12.6675	0.317634	0.24667
12.8119	12.668	0.319222	0.250391
12.8124	12.6685	0.316436	0.251311
12.8128	12.6689	0.3147	0.25233
12.8133	12.6694	0.318143	0.254951
12.8138	12.6699	0.31945	0.257731
12.8142	12.6703	0.318578	0.259384
12.8147	12.6708	0.316237	0.262822
12.8152	12.6713	0.319534	0.265225
12.8157	12.6718	0.314988	0.263459
12.8161	12.6722	0.319904	0.265105
12.8166	12.6727	0.320635	0.26928
12.8171	12.6731	0.316389	0.269583
12.8176	12.6736	0.316568	0.268861
12.818	12.6741	0.315958	0.26947
12.8185	12.6746	0.320126	0.271657
12.819	12.6751	0.317365	0.272211
12.8194	12.6755	0.317419	0.275365
12.8199	12.676	0.317988	0.274727
12.8204	12.6765	0.315849	0.272551
12.8209	12.677	0.319679	0.275181
12.8213	12.6775	0.320872	0.276985
12.8218	12.6779	0.31719	0.276124
12.8223	12.6784	0.317186	0.274153
12.8227	12.6789	0.317601	0.272767
12.8232	12.6793	0.320993	0.27292
12.8237	12.6798	0.319342	0.274229
12.8242	12.6803	0.317576	0.270689
12.8246	12.6807	0.317931	0.269435
12.8251	12.6812	0.315819	0.264851
12.8256	12.6817	0.31994	0.263765
12.8261	12.6822	0.320025	0.263742
12.8265	12.6826	0.318312	0.26109
12.827	12.6831	0.317117	0.255531
12.8275	12.6836	0.316583	0.25256
12.8279	12.684	0.319574	0.252745
12.8284	12.6845	0.318619	0.251752
12.8289	12.685	0.319235	0.248344
12.8294	12.6855	0.317039	0.244891
12.8298	12.686	0.318111	0.24095
12.8303	12.6864	0.319235	0.237737
12.8308	12.6869	0.320074	0.235613
12.8312	12.6874	0.319074	0.232756
12.8317	12.6879	0.317519	0.227493
12.8322	12.6883	0.31874	0.224147
12.8327	12.6888	0.321264	0.221377
12.8331	12.6893	0.321912	0.22275
12.8336	12.6897	0.321338	0.222619
12.8341	12.6902	0.319319	0.221388
12.8346	12.6907	0.318678	0.220442
12.835	12.6911	0.319894	0.223072
12.8355	12.6916	0.322776	0.2296
12.836	12.6921	0.321251	0.23314
12.8364	12.6925	0.317862	0.233913
12.8369	12.693	0.319182	0.238466
12.8374	12.6935	0.321438	0.244113
12.8379	12.6939	0.320172	0.250518
12.8383	12.6944	0.319201	0.255054
12.8388	12.6949	0.31998	0.255958
12.8393	12.6954	0.319341	0.256004
12.8397	12.6958	0.319946	0.258518
12.8402	12.6963	0.320717	0.262025
12.8407	12.6968	0.319949	0.261647
12.8412	12.6973	0.318148	0.25723
12.8416	12.6977	0.318054	0.25494
12.8421	12.6982	0.320035	0.255386
12.8426	12.6987	0.317869	0.250793
12.8431	12.6991	0.319127	0.249613
12.8435	12.6996	0.318768	0.245088
12.844	12.7001	0.318452	0.239715
12.8445	12.7005	0.318445	0.236704
12.8449	12.701	0.320689	0.236723
12.8454	12.7015	0.318974	0.232914
12.8459	12.702	0.316543	0.226759
12.8464	12.7024	0.319251	0.225089
12.8468	12.7029	0.319837	0.225604
12.8473	12.7034	0.319113	0.226112
12.8478	12.7038	0.317947	0.22684
12.8482	12.7043	0.320256	0.22896
12.8487	12.7048	0.31893	0.232331
12.8492	12.7053	0.31828	0.238729
12.8497	12.7058	0.320688	0.248591
12.8501	12.7062	0.319979	0.256541
12.8506	12.7067	0.319013	0.263014
12.8511	12.7072	0.318747	0.273732
12.8516	12.7077	0.322197	0.287812
12.852	12.7082	0.32126	0.300495
12.8525	12.7086	0.319749	0.314028
12.853	12.7091	0.320553	0.325066
12.8534	12.7096	0.319388	0.33544
12.8539	12.71	0.321265	0.351193
12.8544	12.7105	0.321241	0.367967
12.8549	12.711	0.321566	0.381147
12.8553	12.7115	0.317861	0.388121
12.8558	12.7119	0.319506	0.399244
12.8563	12.7124	0.319716	0.41265
12.8567	12.7129	0.320389	0.422906
12.8572	12.7133	0.319961	0.433724
12.8577	12.7138	0.321041	0.440877
12.8582	12.7143	0.319032	0.445256
12.8586	12.7147	0.320162	0.455774
12.8591	12.7152	0.321113	0.469031
12.8596	12.7157	0.319391	0.474875
12.8601	12.7162	0.319052	0.481637
12.8605	12.7167	0.319576	0.488855
12.861	12.7171	0.320112	0.499509
12.8615	12.7176	0.319277	0.50427
12.8619	12.7181	0.318738	0.509859
12.8624	12.7185	0.3187	0.507097
12.8629	12.719	0.31789	0.503085
12.8634	12.7195	0.319019	0.501099
12.8638	12.7199	0.319064	0.498787
12.8643	12.7204	0.317332	0.494111
12.8648	12.7209	0.317011	0.491557
12.8652	12.7214	0.319287	0.494497
12.8657	12.7218	0.318401	0.501317
12.8662	12.7223	0.31804	0.517854
12.8667	12.7227	0.316849	0.542471
12.8671	12.7232	0.318898	0.571593
12.8676	12.7237	0.316033	0.612833
12.8681	12.7241	0.319958	0.675923
12.8686	12.7246	0.316994	0.72469
12.869	12.7251	0.31329	0.764148
12.8695	12.7256	0.314857	0.801822
12.87	12.7261	0.315124	0.834113
12.8704	12.7265	0.31609	0.86421
12.8709	12.727	0.316965	0.881261
12.8714	12.7275	0.31668	0.898041
12.8719	12.728	0.316505	0.903993
12.8723	12.7284	0.318058	0.910747
12.8728	12.7289	0.316815	0.918176
12.8733	12.7294	0.319303	0.929104
12.8737	12.7298	0.317994	0.934576
12.8742	12.7303	0.31739	0.93227
12.8747	12.7308	0.31925	0.939133
12.8752	12.7313	0.319524	0.942658
12.8756	12.7317	0.319022	0.94703
12.8761	12.7322	0.318	0.950515
12.8766	12.7327	0.318381	0.953271
12.8771	12.7331	0.31945	0.949165
12.8775	12.7336	0.317728	0.953791
12.878	12.7341	0.319525	0.959992
12.8785	12.7346	0.319192	0.964384
12.8789	12.735	0.3185	0.959761
12.8794	12.7355	0.319833	0.96232
12.8799	12.736	0.319984	0.964741
12.8804	12.7365	0.321616	0.967253
12.8808	12.737	0.320923	0.970828
12.8813	12.7374	0.320783	0.968919
12.8818	12.7379	0.322047	0.970983
12.8822	12.7384	0.32045	0.968887
12.8827	12.7389	0.322237	0.976552
12.8832	12.7393	0.321521	0.977507
12.8837	12.7398	0.321038	0.971826
12.8841	12.7403	0.321978	0.972545
12.8846	12.7407	0.323094	0.977519
12.8851	12.7412	0.324341	0.982236
12.8856	12.7417	0.323196	0.984438
12.886	12.7422	0.323476	0.980922
12.8865	12.7426	0.325153	0.98131
12.887	12.7431	0.324076	0.983899
12.8874	12.7435	0.324862	0.990419
12.8879	12.744	0.326033	0.990674
12.8884	12.7445	0.324116	0.984824
12.8889	12.745	0.325449	0.983738
12.8893	12.7455	0.32557	0.989346
12.8898	12.7459	0.325876	0.989481
12.8903	12.7464	0.325554	0.992435
12.8907	12.7469	0.325068	0.99101
12.8912	12.7474	0.32672	0.987783
12.8917	12.7478	0.325908	0.990787
12.8922	12.7483	0.32688	0.998816
12.8926	12.7488	0.327223	0.998358
12.8931	12.7492	0.32394	0.988048
12.8936	12.7497	0.327821	0.995128
12.8941	12.7502	0.328489	0.999971
12.8945	12.7506	0.326675	0.996038
12.895	12.7511	0.327576	1.00091
12.8955	12.7516	0.328167	0.997547
12.8959	12.752	0.32824	0.996086
12.8964	12.7525	0.325819	0.995301
12.8969	12.753	0.328904	1.00411
12.8974	12.7534	0.327833	0.999761
12.8978	12.7539	0.325767	0.994419
12.8983	12.7544	0.329566	0.999095
12.8988	12.7548	0.328638	1.00357
