# 1304     AichiSR QXAFS
# Start     : 8.9544
# End       : 9.0544
# Dir       : Forward
# Points    : 300
# ScanTime  : 1.01549
# Date      : 13.04.23 22:26
# Ring Cur. : 25.4[mA]
12.7557	12.7557	0.397531	1.20834
12.7562	12.7553	0.397115	1.20826
12.7566	12.7548	0.396971	1.2122
12.7571	12.7543	0.394776	1.21051
12.7576	12.7538	0.39652	1.20681
12.7581	12.7534	0.397064	1.20753
12.7585	12.7529	0.397331	1.20814
12.759	12.7524	0.395872	1.20963
12.7595	12.752	0.394731	1.20611
12.7599	12.7515	0.395676	1.20512
12.7604	12.751	0.396353	1.20198
12.7609	12.7506	0.394784	1.20448
12.7614	12.7501	0.396664	1.20388
12.7618	12.7496	0.393568	1.20493
12.7623	12.7492	0.394217	1.20377
12.7628	12.7487	0.395062	1.20344
12.7632	12.7482	0.396605	1.20344
12.7637	12.7478	0.395995	1.20673
12.7642	12.7473	0.393867	1.20114
12.7647	12.7468	0.394384	1.20061
12.7651	12.7463	0.395643	1.20152
12.7656	12.7459	0.399305	1.21201
12.7661	12.7454	0.398147	1.20619
12.7666	12.7449	0.394469	1.20184
12.767	12.7444	0.394521	1.19895
12.7675	12.744	0.395295	1.20085
12.768	12.7435	0.39581	1.20023
12.7684	12.743	0.396418	1.19977
12.7689	12.7426	0.393688	1.19612
12.7694	12.7421	0.393835	1.19611
12.7699	12.7416	0.395277	1.19653
12.7703	12.7411	0.395041	1.19565
12.7708	12.7407	0.394641	1.19618
12.7713	12.7402	0.391838	1.19637
12.7717	12.7397	0.393866	1.19114
12.7722	12.7393	0.394916	1.19012
12.7727	12.7388	0.39529	1.19272
12.7732	12.7383	0.396082	1.19366
12.7736	12.7379	0.39428	1.19093
12.7741	12.7374	0.393996	1.18718
12.7746	12.7369	0.394577	1.18833
12.7751	12.7364	0.392789	1.18767
12.7755	12.7359	0.392456	1.18721
12.776	12.7355	0.393843	1.18907
12.7765	12.735	0.394073	1.18451
12.7769	12.7345	0.394218	1.18226
12.7774	12.734	0.393913	1.18269
12.7779	12.7335	0.395377	1.18585
12.7784	12.7331	0.394486	1.18144
12.7788	12.7326	0.393845	1.17654
12.7793	12.7321	0.395297	1.17526
12.7798	12.7317	0.393502	1.17537
12.7802	12.7312	0.395411	1.17621
12.7807	12.7307	0.393161	1.17186
12.7812	12.7302	0.393083	1.16393
12.7817	12.7298	0.396127	1.15835
12.7821	12.7293	0.396116	1.16074
12.7826	12.7288	0.395179	1.1548
12.7831	12.7284	0.395379	1.1489
12.7836	12.7279	0.395412	1.14303
12.784	12.7274	0.396059	1.13198
12.7845	12.7269	0.394827	1.1182
12.785	12.7265	0.391936	1.10029
12.7854	12.726	0.392947	1.0829
12.7859	12.7255	0.391044	1.05107
12.7864	12.725	0.390636	1.01358
12.7869	12.7246	0.390729	0.966575
12.7873	12.7241	0.390069	0.915949
12.7878	12.7236	0.392215	0.857387
12.7883	12.7231	0.392619	0.793401
12.7887	12.7227	0.39486	0.735792
12.7892	12.7222	0.394548	0.690501
12.7897	12.7218	0.393843	0.657819
12.7902	12.7213	0.396136	0.635748
12.7906	12.7208	0.395407	0.618516
12.7911	12.7203	0.397065	0.611727
12.7916	12.7199	0.397437	0.613208
12.7921	12.7194	0.396629	0.618308
12.7925	12.719	0.395292	0.621291
12.793	12.7185	0.394891	0.625298
12.7935	12.718	0.396623	0.627462
12.7939	12.7176	0.395923	0.628566
12.7944	12.7171	0.395329	0.626285
12.7949	12.7166	0.396807	0.620905
12.7954	12.7161	0.397223	0.609355
12.7958	12.7156	0.396275	0.599534
12.7963	12.7152	0.39728	0.590286
12.7968	12.7147	0.396012	0.579811
12.7972	12.7142	0.393731	0.568234
12.7977	12.7137	0.394895	0.557819
12.7982	12.7133	0.397313	0.549126
12.7987	12.7128	0.397383	0.537233
12.7991	12.7123	0.395648	0.528806
12.7996	12.7119	0.396268	0.51422
12.8001	12.7114	0.396207	0.501283
12.8006	12.7109	0.397051	0.488144
12.801	12.7104	0.398525	0.474065
12.8015	12.71	0.396377	0.459834
12.802	12.7095	0.396468	0.442288
12.8024	12.709	0.395336	0.423096
12.8029	12.7086	0.397582	0.407183
12.8034	12.7081	0.396555	0.39237
12.8039	12.7076	0.395866	0.376979
12.8043	12.7071	0.396955	0.361612
12.8048	12.7067	0.396695	0.345592
12.8053	12.7062	0.398258	0.333607
12.8057	12.7057	0.397177	0.323625
12.8062	12.7052	0.396539	0.31124
12.8067	12.7047	0.39724	0.300437
12.8072	12.7043	0.396434	0.292366
12.8076	12.7038	0.398467	0.287249
12.8081	12.7033	0.397394	0.283497
12.8086	12.7028	0.39473	0.280662
12.8091	12.7024	0.396729	0.278803
12.8095	12.7019	0.396143	0.277898
12.81	12.7014	0.397162	0.280659
12.8105	12.701	0.396515	0.284984
12.8109	12.7005	0.394477	0.290197
12.8114	12.7	0.396935	0.292351
12.8119	12.6996	0.396662	0.296848
12.8124	12.6991	0.399298	0.302065
12.8128	12.6986	0.3981	0.307461
12.8133	12.6982	0.396673	0.311271
12.8138	12.6977	0.396935	0.314558
12.8142	12.6972	0.395563	0.316383
12.8147	12.6967	0.397592	0.31976
12.8152	12.6963	0.396551	0.322199
12.8157	12.6958	0.395659	0.322661
12.8161	12.6953	0.395591	0.320657
12.8166	12.6948	0.395683	0.318564
12.8171	12.6944	0.398424	0.317757
12.8176	12.6939	0.396368	0.315169
12.818	12.6934	0.396274	0.310477
12.8185	12.6929	0.396161	0.305029
12.819	12.6925	0.396339	0.297816
12.8194	12.692	0.39689	0.293218
12.8199	12.6916	0.397967	0.28969
12.8204	12.6911	0.395939	0.282756
12.8209	12.6906	0.395827	0.277273
12.8213	12.6901	0.396005	0.273924
12.8218	12.6897	0.398402	0.273155
12.8223	12.6892	0.396463	0.27152
12.8227	12.6888	0.393751	0.274211
12.8232	12.6883	0.393751	0.27364
12.8237	12.6878	0.394816	0.275241
12.8242	12.6873	0.39537	0.279767
12.8246	12.6869	0.395038	0.285204
12.8251	12.6864	0.393801	0.289844
12.8256	12.6859	0.394842	0.290721
12.8261	12.6854	0.394577	0.296558
12.8265	12.6849	0.396732	0.300794
12.827	12.6845	0.395184	0.304681
12.8275	12.684	0.394194	0.308427
12.8279	12.6835	0.393266	0.311157
12.8284	12.683	0.392145	0.311436
12.8289	12.6826	0.394199	0.314163
12.8294	12.6821	0.394217	0.319407
12.8298	12.6816	0.393908	0.321979
12.8303	12.6812	0.392545	0.324642
12.8308	12.6807	0.395444	0.326879
12.8312	12.6802	0.397167	0.331591
12.8317	12.6797	0.397026	0.33491
12.8322	12.6793	0.394177	0.338389
12.8327	12.6788	0.395755	0.338466
12.8331	12.6783	0.396046	0.338949
12.8336	12.6779	0.395344	0.340068
12.8341	12.6774	0.395949	0.341952
12.8346	12.6769	0.395005	0.340742
12.835	12.6764	0.395509	0.34135
12.8355	12.676	0.394061	0.337795
12.836	12.6755	0.395573	0.339519
12.8364	12.675	0.395587	0.339881
12.8369	12.6745	0.393134	0.339134
12.8374	12.674	0.394331	0.336256
12.8379	12.6736	0.394343	0.335627
12.8383	12.6731	0.394485	0.333669
12.8388	12.6726	0.39464	0.334835
12.8393	12.6722	0.394205	0.332913
12.8397	12.6717	0.39294	0.329041
12.8402	12.6712	0.393967	0.325934
12.8407	12.6708	0.394117	0.327474
12.8412	12.6703	0.395034	0.32615
12.8416	12.6698	0.394217	0.323189
12.8421	12.6694	0.393063	0.320153
12.8426	12.6689	0.393891	0.316054
12.8431	12.6684	0.395029	0.314023
12.8435	12.668	0.395573	0.314032
12.844	12.6675	0.394669	0.310572
12.8445	12.667	0.394201	0.306156
12.8449	12.6665	0.395052	0.303456
12.8454	12.6661	0.39511	0.302433
12.8459	12.6656	0.396321	0.301066
12.8464	12.6651	0.39285	0.298732
12.8468	12.6646	0.393356	0.295225
12.8473	12.6641	0.395498	0.292045
12.8478	12.6637	0.393086	0.29085
12.8482	12.6632	0.395291	0.290793
12.8487	12.6628	0.39312	0.285851
12.8492	12.6623	0.391463	0.283287
12.8497	12.6618	0.392973	0.281103
12.8501	12.6614	0.39245	0.279683
12.8506	12.6609	0.392345	0.279097
12.8511	12.6604	0.392163	0.276979
12.8516	12.6599	0.392824	0.274931
12.852	12.6595	0.39336	0.272917
12.8525	12.659	0.391291	0.271194
12.853	12.6585	0.392641	0.272074
12.8534	12.6581	0.390232	0.270932
12.8539	12.6576	0.391087	0.268766
12.8544	12.6571	0.39272	0.268726
12.8549	12.6566	0.392178	0.269705
12.8553	12.6562	0.391701	0.271004
12.8558	12.6557	0.390857	0.271217
12.8563	12.6552	0.390729	0.270709
12.8567	12.6547	0.39184	0.27141
12.8572	12.6542	0.392029	0.274651
12.8577	12.6538	0.392217	0.278595
12.8582	12.6533	0.391782	0.278833
12.8586	12.6528	0.392105	0.278857
12.8591	12.6524	0.392923	0.282255
12.8596	12.6519	0.391147	0.285479
12.8601	12.6514	0.391743	0.287576
12.8605	12.651	0.390754	0.290941
12.861	12.6505	0.393375	0.290257
12.8615	12.65	0.391589	0.29253
12.8619	12.6495	0.391623	0.295705
12.8624	12.6491	0.391794	0.299424
12.8629	12.6486	0.389719	0.301562
12.8634	12.6481	0.388257	0.300871
12.8638	12.6476	0.390104	0.303333
12.8643	12.6472	0.38989	0.305442
12.8648	12.6467	0.389323	0.308443
12.8652	12.6462	0.388454	0.308842
12.8657	12.6457	0.385232	0.307207
12.8662	12.6453	0.38791	0.308761
12.8667	12.6448	0.386404	0.309944
12.8671	12.6443	0.387633	0.314348
12.8676	12.6438	0.386549	0.314701
12.8681	12.6433	0.386829	0.313421
12.8686	12.6429	0.388799	0.314419
12.869	12.6424	0.387908	0.316575
12.8695	12.642	0.38946	0.318297
12.87	12.6415	0.388023	0.318485
12.8704	12.641	0.388819	0.316731
12.8709	12.6405	0.39	0.316378
12.8714	12.6401	0.389516	0.317071
12.8719	12.6396	0.390917	0.318398
12.8723	12.6391	0.388842	0.317015
12.8728	12.6387	0.388161	0.313737
12.8733	12.6382	0.391204	0.314361
12.8737	12.6378	0.392324	0.314926
12.8742	12.6373	0.388909	0.315905
12.8747	12.6368	0.386852	0.314429
12.8752	12.6363	0.387596	0.310379
12.8756	12.6359	0.390126	0.310843
12.8761	12.6354	0.38827	0.311245
12.8766	12.6349	0.387578	0.310144
12.8771	12.6344	0.389224	0.31095
12.8775	12.6339	0.386862	0.308523
12.878	12.6335	0.388492	0.308081
12.8785	12.633	0.387296	0.307714
12.8789	12.6325	0.387705	0.310445
12.8794	12.6321	0.387652	0.30873
12.8799	12.6316	0.387425	0.307234
12.8804	12.6311	0.388625	0.307925
12.8808	12.6307	0.388438	0.309048
12.8813	12.6302	0.388739	0.31012
12.8818	12.6297	0.387127	0.309815
12.8822	12.6293	0.384533	0.309011
12.8827	12.6288	0.389251	0.309255
12.8832	12.6283	0.385451	0.309456
12.8837	12.6279	0.385794	0.30898
12.8841	12.6274	0.385164	0.310113
12.8846	12.6269	0.385204	0.30716
12.8851	12.6264	0.386974	0.308006
12.8856	12.6259	0.387337	0.308223
12.886	12.6255	0.386185	0.308477
12.8865	12.625	0.386729	0.306836
12.887	12.6245	0.384695	0.305418
12.8874	12.624	0.385923	0.303584
12.8879	12.6235	0.38432	0.304421
12.8884	12.6231	0.386635	0.304136
12.8889	12.6226	0.384184	0.302885
12.8893	12.6221	0.385139	0.299136
12.8898	12.6217	0.385225	0.299472
12.8903	12.6212	0.385302	0.300194
12.8907	12.6207	0.384428	0.301388
12.8912	12.6202	0.384359	0.299318
12.8917	12.6198	0.383203	0.296988
12.8922	12.6193	0.385267	0.298206
12.8926	12.6188	0.3843	0.299199
12.8931	12.6184	0.384554	0.299861
12.8936	12.6179	0.383821	0.298646
12.8941	12.6174	0.382511	0.29739
12.8945	12.6169	0.383983	0.297432
12.895	12.6165	0.382815	0.298127
12.8955	12.616	0.383374	0.29929
12.8959	12.6155	0.383367	0.297645
12.8964	12.615	0.38103	0.294965
12.8969	12.6146	0.383848	0.295969
12.8974	12.6141	0.382199	0.296763
12.8978	12.6136	0.383459	0.295617
12.8983	12.6131	0.382409	0.295186
12.8988	12.6127	0.381885	0.293673
