# 1304     AichiSR QXAFS
# Start     : 8.9544
# End       : 9.0544
# Dir       : Backward
# Points    : 300
# ScanTime  : 1.01549
# Date      : 13.04.23 22:29
# Ring Cur. : 25.7[mA]
12.7557	12.6118	0.294532	0.227114
12.7562	12.6123	0.294867	0.224545
12.7566	12.6127	0.296825	0.22614
12.7571	12.6132	0.293989	0.226957
12.7576	12.6136	0.294372	0.228533
12.7581	12.6141	0.294375	0.228061
12.7585	12.6146	0.297264	0.231411
12.759	12.6151	0.297673	0.229279
12.7595	12.6156	0.295443	0.23038
12.7599	12.616	0.297981	0.233608
12.7604	12.6165	0.298213	0.232406
12.7609	12.617	0.3	0.232227
12.7614	12.6175	0.300235	0.232892
12.7618	12.6179	0.298414	0.232355
12.7623	12.6184	0.294289	0.231602
12.7628	12.6189	0.295197	0.231448
12.7632	12.6193	0.296756	0.230561
12.7637	12.6198	0.298294	0.231849
12.7642	12.6203	0.295253	0.231456
12.7647	12.6208	0.295974	0.231047
12.7651	12.6212	0.296906	0.231887
12.7656	12.6217	0.29614	0.230364
12.7661	12.6222	0.298906	0.234412
12.7666	12.6226	0.29816	0.234163
12.767	12.6231	0.29708	0.236453
12.7675	12.6236	0.296126	0.233973
12.768	12.6241	0.300424	0.236937
12.7684	12.6245	0.299208	0.236423
12.7689	12.625	0.295601	0.236124
12.7694	12.6255	0.2972	0.23788
12.7699	12.626	0.29709	0.236837
12.7703	12.6265	0.29742	0.235726
12.7708	12.6269	0.299834	0.240116
12.7713	12.6274	0.299077	0.240715
12.7717	12.6279	0.294579	0.238263
12.7722	12.6284	0.295801	0.238351
12.7727	12.6288	0.298359	0.238619
12.7732	12.6293	0.298445	0.238053
12.7736	12.6298	0.29727	0.239699
12.7741	12.6302	0.297561	0.239562
12.7746	12.6307	0.299525	0.239028
12.7751	12.6312	0.298176	0.238464
12.7755	12.6317	0.301912	0.239916
12.776	12.6321	0.299441	0.239858
12.7765	12.6326	0.298354	0.238991
12.7769	12.633	0.296808	0.237497
12.7774	12.6335	0.30134	0.238684
12.7779	12.634	0.299508	0.238154
12.7784	12.6344	0.298201	0.238108
12.7788	12.6349	0.299813	0.240476
12.7793	12.6354	0.298961	0.240359
12.7798	12.6359	0.2993	0.239845
12.7802	12.6364	0.302804	0.242976
12.7807	12.6368	0.301576	0.243551
12.7812	12.6373	0.299948	0.242774
12.7817	12.6378	0.301485	0.243966
12.7821	12.6383	0.302354	0.243679
12.7826	12.6387	0.301882	0.244777
12.7831	12.6392	0.301787	0.246067
12.7836	12.6396	0.302101	0.246768
12.784	12.6401	0.298416	0.244105
12.7845	12.6406	0.301989	0.245096
12.785	12.6411	0.303479	0.246837
12.7854	12.6415	0.30406	0.249187
12.7859	12.642	0.300867	0.246181
12.7864	12.6425	0.301898	0.2462
12.7869	12.6429	0.30381	0.247794
12.7873	12.6434	0.303899	0.246323
12.7878	12.6438	0.30319	0.247493
12.7883	12.6443	0.300938	0.247952
12.7887	12.6448	0.303266	0.244606
12.7892	12.6453	0.302377	0.242547
12.7897	12.6458	0.30439	0.243813
12.7902	12.6462	0.302991	0.24467
12.7906	12.6467	0.301102	0.242337
12.7911	12.6472	0.302844	0.239831
12.7916	12.6477	0.304635	0.238844
12.7921	12.6482	0.303692	0.238562
12.7925	12.6486	0.304773	0.238191
12.793	12.6491	0.304033	0.239286
12.7935	12.6496	0.305158	0.23395
12.7939	12.65	0.305087	0.231827
12.7944	12.6505	0.307844	0.233538
12.7949	12.651	0.308933	0.231641
12.7954	12.6515	0.306144	0.230468
12.7958	12.6519	0.307608	0.226749
12.7963	12.6524	0.310188	0.226677
12.7968	12.6529	0.309656	0.223548
12.7972	12.6533	0.30812	0.223389
12.7977	12.6538	0.307254	0.222598
12.7982	12.6543	0.307523	0.218003
12.7987	12.6548	0.309797	0.215708
12.7991	12.6552	0.31058	0.216878
12.7996	12.6557	0.308276	0.217273
12.8001	12.6562	0.307287	0.214493
12.8006	12.6567	0.309642	0.212482
12.801	12.6572	0.310586	0.21286
12.8015	12.6576	0.310471	0.214263
12.802	12.6581	0.310424	0.215181
12.8024	12.6586	0.309247	0.214812
12.8029	12.659	0.308271	0.214368
12.8034	12.6595	0.312028	0.214345
12.8039	12.66	0.311983	0.216422
12.8043	12.6604	0.311154	0.218207
12.8048	12.6609	0.309425	0.220331
12.8053	12.6614	0.310211	0.219653
12.8057	12.6619	0.313099	0.221155
12.8062	12.6623	0.312563	0.223777
12.8067	12.6628	0.310796	0.226581
12.8072	12.6632	0.31292	0.22728
12.8076	12.6637	0.311895	0.227585
12.8081	12.6642	0.31191	0.23016
12.8086	12.6647	0.313892	0.232423
12.8091	12.6651	0.314423	0.236755
12.8095	12.6656	0.312885	0.23771
12.81	12.6661	0.313728	0.237992
12.8105	12.6666	0.314777	0.239913
12.8109	12.667	0.313386	0.241797
12.8114	12.6675	0.312792	0.244005
12.8119	12.668	0.312684	0.247182
12.8124	12.6685	0.31292	0.246988
12.8128	12.6689	0.313648	0.24962
12.8133	12.6694	0.315285	0.253268
12.8138	12.6698	0.315756	0.255293
12.8142	12.6703	0.311739	0.257274
12.8147	12.6708	0.312892	0.257162
12.8152	12.6713	0.316815	0.260472
12.8157	12.6717	0.31488	0.261743
12.8161	12.6722	0.31488	0.264376
12.8166	12.6727	0.314747	0.266355
12.8171	12.6731	0.313478	0.264785
12.8176	12.6736	0.314999	0.266225
12.818	12.6741	0.317055	0.268867
12.8185	12.6745	0.315853	0.27036
12.819	12.675	0.312555	0.268995
12.8194	12.6755	0.314968	0.270617
12.8199	12.676	0.317855	0.272118
12.8204	12.6765	0.317646	0.273443
12.8209	12.677	0.314089	0.273083
12.8213	12.6774	0.31583	0.273724
12.8218	12.6779	0.316461	0.271359
12.8223	12.6784	0.317576	0.271859
12.8227	12.6789	0.316991	0.273257
12.8232	12.6793	0.316423	0.272589
12.8237	12.6798	0.315349	0.271145
12.8242	12.6803	0.31472	0.268111
12.8246	12.6807	0.317535	0.266552
12.8251	12.6812	0.317697	0.264816
12.8256	12.6817	0.316551	0.263603
12.8261	12.6822	0.315587	0.261351
12.8265	12.6826	0.315012	0.256535
12.827	12.6831	0.31754	0.25493
12.8275	12.6835	0.317908	0.253706
12.8279	12.684	0.317142	0.251858
12.8284	12.6845	0.315947	0.249825
12.8289	12.685	0.315908	0.24414
12.8294	12.6855	0.320507	0.243729
12.8298	12.6859	0.317184	0.240803
12.8303	12.6864	0.316982	0.237976
12.8308	12.6869	0.316822	0.235953
12.8312	12.6874	0.317183	0.229362
12.8317	12.6879	0.318137	0.225982
12.8322	12.6883	0.3191	0.2256
12.8327	12.6888	0.319714	0.223317
12.8331	12.6893	0.317414	0.219486
12.8336	12.6897	0.31748	0.217231
12.8341	12.6902	0.320513	0.218912
12.8346	12.6907	0.319172	0.220724
12.835	12.6911	0.317734	0.222991
12.8355	12.6916	0.317636	0.226425
12.836	12.6921	0.317641	0.228352
12.8364	12.6925	0.320099	0.233727
12.8369	12.693	0.320032	0.239714
12.8374	12.6935	0.317621	0.244816
12.8379	12.6939	0.317427	0.247347
12.8383	12.6944	0.318052	0.250155
12.8388	12.6949	0.320034	0.253576
12.8393	12.6953	0.317389	0.257037
12.8397	12.6958	0.318946	0.258583
12.8402	12.6963	0.319799	0.259967
12.8407	12.6968	0.315427	0.256621
12.8412	12.6973	0.317141	0.25687
12.8416	12.6977	0.318847	0.256658
12.8421	12.6982	0.319563	0.256039
12.8426	12.6987	0.316171	0.250998
12.8431	12.6991	0.316295	0.246578
12.8435	12.6996	0.319717	0.245376
12.844	12.7	0.316625	0.240701
12.8445	12.7005	0.316558	0.238076
12.8449	12.701	0.318095	0.234149
12.8454	12.7015	0.317654	0.229717
12.8459	12.702	0.317982	0.22725
12.8464	12.7024	0.316667	0.225393
12.8468	12.7029	0.318126	0.226314
12.8473	12.7033	0.316522	0.224399
12.8478	12.7038	0.31755	0.223593
12.8482	12.7043	0.318925	0.227736
12.8487	12.7048	0.318551	0.231885
12.8492	12.7053	0.319652	0.240186
12.8497	12.7057	0.319005	0.247013
12.8501	12.7062	0.317768	0.250632
12.8506	12.7067	0.319655	0.261193
12.8511	12.7072	0.32134	0.276158
12.8516	12.7077	0.320268	0.286507
12.852	12.7081	0.316812	0.296095
12.8525	12.7086	0.317663	0.308131
12.853	12.7091	0.321912	0.323643
12.8534	12.7095	0.319577	0.336693
12.8539	12.71	0.31831	0.35112
12.8544	12.7105	0.319326	0.364909
12.8549	12.711	0.320405	0.375356
12.8553	12.7114	0.320048	0.386929
12.8558	12.7119	0.321401	0.401345
12.8563	12.7124	0.320881	0.414476
12.8567	12.7128	0.319435	0.42363
12.8572	12.7133	0.317582	0.42748
12.8577	12.7138	0.322724	0.439577
12.8582	12.7142	0.320162	0.448868
12.8586	12.7147	0.318896	0.45715
12.8591	12.7152	0.31947	0.46319
12.8596	12.7157	0.31794	0.4684
12.8601	12.7162	0.321265	0.479331
12.8605	12.7166	0.320549	0.489825
12.861	12.7171	0.319342	0.497579
12.8615	12.7176	0.318246	0.502113
12.8619	12.7181	0.31976	0.508061
12.8624	12.7185	0.322463	0.510548
12.8629	12.719	0.319832	0.506029
12.8634	12.7195	0.318699	0.505896
12.8638	12.7199	0.320996	0.501798
12.8643	12.7204	0.319175	0.494774
12.8648	12.7209	0.320253	0.493013
12.8652	12.7213	0.318263	0.496104
12.8657	12.7218	0.318705	0.5039
12.8662	12.7223	0.316899	0.514752
12.8667	12.7227	0.317594	0.533629
12.8671	12.7232	0.319346	0.567156
12.8676	12.7237	0.316313	0.606623
12.8681	12.7241	0.314491	0.657575
12.8686	12.7246	0.315229	0.70836
12.869	12.7251	0.314332	0.751407
12.8695	12.7256	0.313175	0.792636
12.87	12.726	0.315762	0.836736
12.8704	12.7265	0.317131	0.866389
12.8709	12.727	0.315804	0.875895
12.8714	12.7275	0.316019	0.890489
12.8719	12.7279	0.321224	0.909966
12.8723	12.7284	0.31764	0.91724
12.8728	12.7289	0.3157	0.918081
12.8733	12.7293	0.317537	0.929443
12.8737	12.7298	0.31734	0.932195
12.8742	12.7303	0.317554	0.932926
12.8747	12.7308	0.318951	0.939727
12.8752	12.7312	0.32076	0.948661
12.8756	12.7317	0.316968	0.943184
12.8761	12.7322	0.317729	0.948055
12.8766	12.7326	0.321768	0.955779
12.8771	12.7331	0.318739	0.954267
12.8775	12.7336	0.319817	0.95834
12.878	12.7341	0.319391	0.960169
12.8785	12.7345	0.317893	0.954661
12.8789	12.735	0.319017	0.955142
12.8794	12.7355	0.321401	0.966582
12.8799	12.736	0.319338	0.965729
12.8804	12.7365	0.317582	0.957399
12.8808	12.7369	0.319359	0.961129
12.8813	12.7374	0.319913	0.965363
12.8818	12.7379	0.319528	0.964668
12.8822	12.7384	0.319138	0.966917
12.8827	12.7388	0.320548	0.970559
12.8832	12.7393	0.319781	0.968359
12.8837	12.7398	0.321503	0.969713
12.8841	12.7402	0.320803	0.975871
12.8846	12.7407	0.320997	0.974649
12.8851	12.7412	0.321515	0.971697
12.8856	12.7417	0.317719	0.971464
12.886	12.7421	0.321155	0.97147
12.8865	12.7426	0.32096	0.973767
12.887	12.7431	0.320489	0.977025
12.8874	12.7435	0.31912	0.972475
12.8879	12.744	0.319108	0.969321
12.8884	12.7445	0.321106	0.974417
12.8889	12.745	0.323005	0.980878
12.8893	12.7454	0.320549	0.981236
12.8898	12.7459	0.321079	0.977658
12.8903	12.7464	0.321661	0.979589
12.8907	12.7469	0.324519	0.980003
12.8912	12.7473	0.323169	0.981882
12.8917	12.7478	0.322692	0.984267
12.8922	12.7483	0.323603	0.980596
12.8926	12.7488	0.321521	0.979504
12.8931	12.7492	0.321737	0.975689
12.8936	12.7497	0.321886	0.982449
12.8941	12.7501	0.322753	0.987678
12.8945	12.7506	0.319738	0.977158
12.895	12.7511	0.321641	0.975728
12.8955	12.7516	0.323735	0.981385
12.8959	12.752	0.321341	0.982906
12.8964	12.7525	0.320643	0.98595
12.8969	12.7529	0.321757	0.984378
12.8974	12.7534	0.322352	0.978807
12.8978	12.7539	0.320425	0.976478
12.8983	12.7543	0.32253	0.986633
12.8988	12.7548	0.323059	0.98912
