# 1304     AichiSR QXAFS
# Start     : 8.9544
# End       : 9.0544
# Dir       : Backward
# Points    : 300
# ScanTime  : 1.01549
# Date      : 13.04.23 22:22
# Ring Cur. : 25.5[mA]
12.7557	12.6117	0.308558	0.234894
12.7562	12.6122	0.307371	0.236729
12.7566	12.6127	0.307998	0.236829
12.7571	12.6131	0.309625	0.237552
12.7576	12.6136	0.307954	0.236631
12.7581	12.6141	0.308249	0.239034
12.7585	12.6145	0.310109	0.242638
12.759	12.615	0.308355	0.240298
12.7595	12.6155	0.309381	0.238684
12.7599	12.616	0.31058	0.242073
12.7604	12.6164	0.309112	0.24143
12.7609	12.6169	0.309566	0.242342
12.7614	12.6174	0.310121	0.241483
12.7618	12.6179	0.309885	0.240628
12.7623	12.6183	0.309081	0.2402
12.7628	12.6188	0.309771	0.243247
12.7632	12.6193	0.310718	0.244054
12.7637	12.6197	0.309939	0.241242
12.7642	12.6202	0.310306	0.239743
12.7647	12.6207	0.312344	0.242791
12.7651	12.6212	0.310037	0.243621
12.7656	12.6217	0.307737	0.243202
12.7661	12.6221	0.311555	0.244293
12.7666	12.6226	0.309215	0.241983
12.767	12.6231	0.310977	0.242934
12.7675	12.6235	0.312168	0.244993
12.768	12.624	0.31175	0.249154
12.7684	12.6245	0.310854	0.245327
12.7689	12.6249	0.309335	0.245688
12.7694	12.6254	0.312624	0.246606
12.7699	12.6259	0.31211	0.248186
12.7703	12.6264	0.312489	0.249854
12.7708	12.6269	0.311045	0.248961
12.7713	12.6273	0.310708	0.247659
12.7717	12.6278	0.311209	0.249991
12.7722	12.6283	0.310183	0.249655
12.7727	12.6288	0.310782	0.251222
12.7732	12.6292	0.311215	0.249998
12.7736	12.6297	0.312925	0.249283
12.7741	12.6302	0.310249	0.248985
12.7746	12.6306	0.312597	0.250557
12.7751	12.6311	0.31145	0.250748
12.7755	12.6316	0.3127	0.249906
12.776	12.6321	0.310726	0.247189
12.7765	12.6325	0.313012	0.248732
12.7769	12.633	0.312186	0.250181
12.7774	12.6334	0.313189	0.251442
12.7779	12.6339	0.313573	0.249351
12.7784	12.6344	0.311321	0.249188
12.7788	12.6349	0.313794	0.249354
12.7793	12.6353	0.313275	0.250817
12.7798	12.6358	0.312984	0.25302
12.7802	12.6363	0.312833	0.251814
12.7807	12.6368	0.313786	0.251674
12.7812	12.6372	0.313154	0.251892
12.7817	12.6377	0.313432	0.253768
12.7821	12.6382	0.313858	0.254306
12.7826	12.6387	0.314792	0.255059
12.7831	12.6391	0.313206	0.254067
12.7836	12.6396	0.313811	0.255025
12.784	12.64	0.314051	0.255159
12.7845	12.6405	0.313619	0.256586
12.785	12.641	0.314557	0.25623
12.7854	12.6415	0.314407	0.256106
12.7859	12.6419	0.312792	0.254803
12.7864	12.6424	0.312946	0.257792
12.7869	12.6428	0.313865	0.258779
12.7873	12.6433	0.312918	0.256598
12.7878	12.6438	0.313783	0.253713
12.7883	12.6443	0.313586	0.254151
12.7887	12.6447	0.313993	0.255198
12.7892	12.6452	0.311168	0.251881
12.7897	12.6457	0.312587	0.25045
12.7902	12.6462	0.314231	0.250058
12.7906	12.6467	0.311227	0.247665
12.7911	12.6471	0.312217	0.249582
12.7916	12.6476	0.31385	0.2495
12.7921	12.6481	0.315263	0.247863
12.7925	12.6486	0.315158	0.2447
12.793	12.649	0.31635	0.24373
12.7935	12.6495	0.316071	0.243918
12.7939	12.65	0.313658	0.241537
12.7944	12.6504	0.31704	0.239976
12.7949	12.6509	0.317233	0.238261
12.7954	12.6514	0.31456	0.233025
12.7958	12.6519	0.314892	0.233653
12.7963	12.6523	0.317674	0.233621
12.7968	12.6528	0.316334	0.229883
12.7972	12.6533	0.315932	0.227507
12.7977	12.6537	0.319045	0.227355
12.7982	12.6542	0.317319	0.226779
12.7987	12.6547	0.316944	0.224018
12.7991	12.6552	0.317866	0.22238
12.7996	12.6557	0.319893	0.220887
12.8001	12.6561	0.317206	0.220402
12.8006	12.6566	0.317461	0.221113
12.801	12.6571	0.315567	0.219736
12.8015	12.6576	0.316426	0.216854
12.802	12.658	0.318943	0.218259
12.8024	12.6585	0.318568	0.219742
12.8029	12.659	0.316597	0.219758
12.8034	12.6594	0.316156	0.22144
12.8039	12.6599	0.317573	0.220879
12.8043	12.6604	0.318545	0.221701
12.8048	12.6609	0.316743	0.224246
12.8053	12.6613	0.318934	0.227151
12.8057	12.6618	0.31849	0.228999
12.8062	12.6623	0.317794	0.228335
12.8067	12.6627	0.319616	0.23092
12.8072	12.6632	0.320078	0.232649
12.8076	12.6636	0.318294	0.233966
12.8081	12.6641	0.317298	0.236351
12.8086	12.6646	0.318674	0.23678
12.8091	12.6651	0.319531	0.238177
12.8095	12.6655	0.318899	0.241675
12.81	12.666	0.319667	0.244976
12.8105	12.6665	0.319806	0.246088
12.8109	12.667	0.318533	0.245295
12.8114	12.6675	0.31988	0.24894
12.8119	12.6679	0.319006	0.251474
12.8124	12.6684	0.319924	0.253352
12.8128	12.6689	0.319258	0.254559
12.8133	12.6693	0.319564	0.25639
12.8138	12.6698	0.320488	0.258143
12.8142	12.6702	0.319546	0.261659
12.8147	12.6707	0.318402	0.263203
12.8152	12.6712	0.320321	0.265075
12.8157	12.6717	0.319407	0.265908
12.8161	12.6721	0.320531	0.266446
12.8166	12.6726	0.321505	0.270864
12.8171	12.6731	0.320285	0.270601
12.8176	12.6735	0.319448	0.271474
12.818	12.674	0.320639	0.271195
12.8185	12.6745	0.322581	0.272879
12.819	12.675	0.319564	0.273171
12.8194	12.6755	0.32026	0.275957
12.8199	12.6759	0.320336	0.277237
12.8204	12.6764	0.319264	0.274929
12.8209	12.6769	0.321408	0.275468
12.8213	12.6774	0.322884	0.278161
12.8218	12.6778	0.321399	0.277839
12.8223	12.6783	0.319056	0.277611
12.8227	12.6788	0.320853	0.276738
12.8232	12.6793	0.324342	0.275568
12.8237	12.6797	0.321263	0.274388
12.8242	12.6802	0.31916	0.273119
12.8246	12.6807	0.321058	0.271682
12.8251	12.6811	0.319149	0.266981
12.8256	12.6816	0.320338	0.264667
12.8261	12.6821	0.321499	0.264319
12.8265	12.6826	0.320023	0.262919
12.827	12.683	0.317945	0.258179
12.8275	12.6835	0.318261	0.254394
12.8279	12.684	0.321731	0.252801
12.8284	12.6844	0.320677	0.250813
12.8289	12.6849	0.318892	0.249394
12.8294	12.6854	0.320042	0.247459
12.8298	12.6859	0.31987	0.241674
12.8303	12.6864	0.32173	0.23916
12.8308	12.6868	0.321448	0.236067
12.8312	12.6873	0.320136	0.234625
12.8317	12.6878	0.320708	0.230275
12.8322	12.6883	0.320351	0.226237
12.8327	12.6887	0.322983	0.22478
12.8331	12.6892	0.321318	0.222553
12.8336	12.6896	0.32074	0.222517
12.8341	12.6901	0.321136	0.222159
12.8346	12.6906	0.321094	0.220606
12.835	12.6911	0.321698	0.223742
12.8355	12.6915	0.322133	0.227627
12.836	12.692	0.322069	0.231875
12.8364	12.6925	0.319749	0.235509
12.8369	12.6929	0.320502	0.239233
12.8374	12.6934	0.32253	0.244478
12.8379	12.6939	0.319967	0.249206
12.8383	12.6943	0.318883	0.25386
12.8388	12.6948	0.322377	0.258065
12.8393	12.6953	0.318795	0.257348
12.8397	12.6958	0.319805	0.259249
12.8402	12.6962	0.322816	0.261682
12.8407	12.6967	0.32175	0.26136
12.8412	12.6972	0.319393	0.258037
12.8416	12.6977	0.31953	0.256199
12.8421	12.6981	0.323052	0.256123
12.8426	12.6986	0.319306	0.251823
12.8431	12.6991	0.319848	0.250618
12.8435	12.6995	0.318978	0.245769
12.844	12.7	0.318699	0.240146
12.8445	12.7005	0.323427	0.240651
12.8449	12.7009	0.324521	0.237591
12.8454	12.7014	0.320478	0.233598
12.8459	12.7019	0.320079	0.228605
12.8464	12.7024	0.321026	0.225935
12.8468	12.7028	0.321935	0.225641
12.8473	12.7033	0.319951	0.225773
12.8478	12.7038	0.320116	0.228494
12.8482	12.7042	0.321368	0.230494
12.8487	12.7047	0.320605	0.23316
12.8492	12.7052	0.321992	0.240016
12.8497	12.7057	0.321479	0.249523
12.8501	12.7062	0.321762	0.257106
12.8506	12.7066	0.320342	0.266241
12.8511	12.7071	0.321682	0.275995
12.8516	12.7076	0.322921	0.287416
12.852	12.7081	0.321468	0.301054
12.8525	12.7086	0.32049	0.312197
12.853	12.709	0.322369	0.326308
12.8534	12.7095	0.321968	0.337883
12.8539	12.7099	0.323871	0.353562
12.8544	12.7104	0.322146	0.366871
12.8549	12.7109	0.323398	0.382965
12.8553	12.7114	0.322823	0.392632
12.8558	12.7118	0.323368	0.402993
12.8563	12.7123	0.324814	0.415118
12.8567	12.7128	0.323277	0.427724
12.8572	12.7132	0.324265	0.43696
12.8577	12.7137	0.324512	0.447446
12.8582	12.7142	0.322922	0.45121
12.8586	12.7147	0.324847	0.462144
12.8591	12.7151	0.324749	0.47031
12.8596	12.7156	0.324304	0.480142
12.8601	12.7161	0.32409	0.487015
12.8605	12.7166	0.323594	0.494254
12.861	12.717	0.32643	0.50481
12.8615	12.7175	0.324619	0.513046
12.8619	12.718	0.323973	0.517516
12.8624	12.7185	0.325303	0.518231
12.8629	12.7189	0.325358	0.512441
12.8634	12.7194	0.326787	0.51246
12.8638	12.7198	0.325972	0.509876
12.8643	12.7203	0.325395	0.505555
12.8648	12.7208	0.322839	0.501527
12.8652	12.7213	0.322376	0.504787
12.8657	12.7217	0.325719	0.514005
12.8662	12.7222	0.324058	0.526655
12.8667	12.7227	0.324385	0.549619
12.8671	12.7231	0.324931	0.583176
12.8676	12.7236	0.321739	0.620739
12.8681	12.7241	0.323495	0.675337
12.8686	12.7245	0.323424	0.731309
12.869	12.725	0.322176	0.777679
12.8695	12.7255	0.319424	0.809619
12.87	12.726	0.322029	0.851009
12.8704	12.7264	0.326358	0.88457
12.8709	12.7269	0.323929	0.90162
12.8714	12.7274	0.323598	0.917234
12.8719	12.7279	0.32545	0.927482
12.8723	12.7283	0.325562	0.934359
12.8728	12.7288	0.325413	0.940969
12.8733	12.7293	0.326252	0.954453
12.8737	12.7297	0.325458	0.958942
12.8742	12.7302	0.32341	0.954061
12.8747	12.7307	0.325882	0.961492
12.8752	12.7312	0.329556	0.973617
12.8756	12.7317	0.326415	0.970558
12.8761	12.7321	0.327878	0.978277
12.8766	12.7326	0.327765	0.978429
12.8771	12.7331	0.326046	0.976089
12.8775	12.7335	0.327537	0.98156
12.878	12.734	0.330699	0.98901
12.8785	12.7345	0.329021	0.989665
12.8789	12.735	0.327654	0.983502
12.8794	12.7354	0.32758	0.987685
12.8799	12.7359	0.330853	0.990325
12.8804	12.7364	0.330937	0.994843
12.8808	12.7369	0.327846	0.993665
12.8813	12.7374	0.329441	0.995604
12.8818	12.7378	0.329062	0.991276
12.8822	12.7383	0.330161	0.993884
12.8827	12.7388	0.33084	0.99933
12.8832	12.7392	0.329874	1.00193
12.8837	12.7397	0.328602	0.997386
12.8841	12.7402	0.329998	0.998333
12.8846	12.7407	0.331593	1.0031
12.8851	12.7411	0.33205	1.00533
12.8856	12.7416	0.330031	1.00504
12.886	12.7421	0.331225	1.00789
12.8865	12.7425	0.332352	1.00543
12.887	12.743	0.332687	1.00625
12.8874	12.7435	0.333375	1.01147
12.8879	12.7439	0.330932	1.01053
12.8884	12.7444	0.330715	1.00335
12.8889	12.7449	0.332722	1.00642
12.8893	12.7454	0.33407	1.01309
12.8898	12.7458	0.331929	1.00999
12.8903	12.7463	0.331844	1.01406
12.8907	12.7468	0.333985	1.01809
12.8912	12.7473	0.332795	1.01258
12.8917	12.7478	0.332871	1.01245
12.8922	12.7482	0.335191	1.02149
12.8926	12.7487	0.334148	1.02123
12.8931	12.7492	0.330808	1.0094
12.8936	12.7496	0.333419	1.01324
12.8941	12.7501	0.334361	1.01839
12.8945	12.7505	0.333946	1.01782
12.895	12.751	0.333444	1.02222
12.8955	12.7515	0.334097	1.0176
12.8959	12.752	0.333677	1.01472
12.8964	12.7524	0.333859	1.01534
12.8969	12.7529	0.336156	1.02239
12.8974	12.7534	0.334388	1.02507
12.8978	12.7538	0.333035	1.01511
12.8983	12.7543	0.336309	1.02116
12.8988	12.7548	0.335974	1.02326
