# 1304     AichiSR QXAFS
# Start     : 8.9544
# End       : 9.0544
# Dir       : Backward
# Points    : 300
# ScanTime  : 1.01549
# Date      : 13.04.23 22:24
# Ring Cur. : 25.5[mA]
12.7557	12.6118	0.303397	0.233212
12.7562	12.6122	0.303439	0.233835
12.7566	12.6127	0.303887	0.232698
12.7571	12.6131	0.305402	0.233866
12.7576	12.6136	0.305675	0.235137
12.7581	12.6141	0.306591	0.237014
12.7585	12.6145	0.306679	0.238211
12.759	12.615	0.306853	0.237906
12.7595	12.6155	0.30737	0.238237
12.7599	12.616	0.308059	0.238295
12.7604	12.6165	0.308753	0.239606
12.7609	12.6169	0.307319	0.240245
12.7614	12.6174	0.305444	0.237915
12.7618	12.6179	0.30684	0.237722
12.7623	12.6184	0.304697	0.238273
12.7628	12.6188	0.307277	0.239469
12.7632	12.6193	0.30727	0.240805
12.7637	12.6198	0.306959	0.238553
12.7642	12.6202	0.305912	0.237399
12.7647	12.6207	0.309185	0.240033
12.7651	12.6212	0.308636	0.241981
12.7656	12.6217	0.305877	0.240984
12.7661	12.6221	0.307195	0.239994
12.7666	12.6226	0.308212	0.239415
12.767	12.6231	0.306421	0.240848
12.7675	12.6235	0.307208	0.241553
12.768	12.624	0.308486	0.244102
12.7684	12.6245	0.305316	0.241401
12.7689	12.625	0.304817	0.241079
12.7694	12.6254	0.308935	0.242807
12.7699	12.6259	0.307424	0.24548
12.7703	12.6264	0.304866	0.244085
12.7708	12.6269	0.306918	0.244307
12.7713	12.6274	0.309181	0.246329
12.7717	12.6278	0.307256	0.246095
12.7722	12.6283	0.309507	0.247994
12.7727	12.6288	0.308732	0.249294
12.7732	12.6292	0.305558	0.24585
12.7736	12.6297	0.30674	0.245537
12.7741	12.6302	0.309676	0.247589
12.7746	12.6306	0.30651	0.246595
12.7751	12.6311	0.305987	0.245914
12.7755	12.6316	0.307945	0.244987
12.776	12.6321	0.308007	0.244441
12.7765	12.6325	0.307092	0.245714
12.7769	12.633	0.307397	0.245649
12.7774	12.6335	0.309534	0.246746
12.7779	12.6339	0.30645	0.244878
12.7784	12.6344	0.310086	0.24659
12.7788	12.6349	0.309164	0.248128
12.7793	12.6353	0.310215	0.247922
12.7798	12.6358	0.308487	0.248945
12.7802	12.6363	0.308495	0.247469
12.7807	12.6368	0.308182	0.247457
12.7812	12.6373	0.307201	0.246842
12.7817	12.6377	0.308698	0.250496
12.7821	12.6382	0.307211	0.249957
12.7826	12.6387	0.306317	0.247444
12.7831	12.6391	0.30658	0.248469
12.7836	12.6396	0.308676	0.251276
12.784	12.64	0.307899	0.252103
12.7845	12.6405	0.308271	0.252193
12.785	12.641	0.309559	0.251277
12.7854	12.6415	0.312038	0.253151
12.7859	12.6419	0.308924	0.253377
12.7864	12.6424	0.308765	0.252629
12.7869	12.6429	0.310496	0.253792
12.7873	12.6433	0.307654	0.249658
12.7878	12.6438	0.308865	0.249654
12.7883	12.6443	0.307982	0.250304
12.7887	12.6447	0.305704	0.249548
12.7892	12.6452	0.304374	0.247309
12.7897	12.6457	0.306181	0.246642
12.7902	12.6462	0.309921	0.246487
12.7906	12.6467	0.309404	0.247433
12.7911	12.6471	0.307944	0.246422
12.7916	12.6476	0.311777	0.245246
12.7921	12.6481	0.30895	0.242075
12.7925	12.6486	0.31171	0.240702
12.793	12.649	0.310899	0.241612
12.7935	12.6495	0.311736	0.239765
12.7939	12.65	0.309317	0.236824
12.7944	12.6505	0.310813	0.234091
12.7949	12.6509	0.312559	0.23299
12.7954	12.6514	0.30955	0.231333
12.7958	12.6519	0.31144	0.231185
12.7963	12.6524	0.310311	0.228359
12.7968	12.6528	0.3087	0.224537
12.7972	12.6533	0.311414	0.223527
12.7977	12.6538	0.311441	0.223254
12.7982	12.6542	0.311981	0.221662
12.7987	12.6547	0.311712	0.220948
12.7991	12.6552	0.312075	0.218316
12.7996	12.6557	0.315882	0.218268
12.8001	12.6561	0.312384	0.217668
12.8006	12.6566	0.312507	0.21755
12.801	12.6571	0.313628	0.217611
12.8015	12.6576	0.313404	0.215909
12.802	12.6581	0.314061	0.215878
12.8024	12.6585	0.312897	0.216777
12.8029	12.659	0.313058	0.217764
12.8034	12.6594	0.313326	0.21692
12.8039	12.6599	0.312268	0.216274
12.8043	12.6604	0.31662	0.220052
12.8048	12.6609	0.313013	0.221733
12.8053	12.6613	0.315786	0.225195
12.8057	12.6618	0.316647	0.226969
12.8062	12.6623	0.316396	0.225932
12.8067	12.6627	0.317296	0.228874
12.8072	12.6632	0.318255	0.230944
12.8076	12.6637	0.317127	0.23412
12.8081	12.6641	0.317031	0.233883
12.8086	12.6646	0.315898	0.234731
12.8091	12.6651	0.31699	0.236561
12.8095	12.6656	0.31493	0.239169
12.81	12.666	0.316267	0.241825
12.8105	12.6665	0.317891	0.243775
12.8109	12.667	0.315046	0.242651
12.8114	12.6675	0.318955	0.245844
12.8119	12.6679	0.319044	0.250638
12.8124	12.6684	0.318992	0.252532
12.8128	12.6689	0.317135	0.253949
12.8133	12.6693	0.320514	0.255841
12.8138	12.6698	0.320652	0.259224
12.8142	12.6703	0.320309	0.260659
12.8147	12.6707	0.319685	0.26334
12.8152	12.6712	0.320211	0.264471
12.8157	12.6717	0.318232	0.264367
12.8161	12.6721	0.318558	0.265176
12.8166	12.6726	0.320418	0.268883
12.8171	12.6731	0.318896	0.27117
12.8176	12.6735	0.319097	0.269202
12.818	12.674	0.317501	0.268912
12.8185	12.6745	0.32028	0.27241
12.819	12.675	0.319992	0.274082
12.8194	12.6755	0.320107	0.277195
12.8199	12.6759	0.322478	0.276963
12.8204	12.6764	0.320034	0.276091
12.8209	12.6769	0.323804	0.276903
12.8213	12.6774	0.322144	0.279014
12.8218	12.6779	0.320605	0.279732
12.8223	12.6783	0.319815	0.277053
12.8227	12.6788	0.321189	0.27612
12.8232	12.6793	0.322895	0.275606
12.8237	12.6797	0.319188	0.274776
12.8242	12.6802	0.319635	0.273649
12.8246	12.6807	0.321775	0.272174
12.8251	12.6812	0.321179	0.267737
12.8256	12.6816	0.321535	0.265049
12.8261	12.6821	0.322684	0.266512
12.8265	12.6826	0.323494	0.263661
12.827	12.683	0.321749	0.258586
12.8275	12.6835	0.322808	0.256924
12.8279	12.684	0.323563	0.255859
12.8284	12.6844	0.322677	0.253491
12.8289	12.6849	0.321481	0.251242
12.8294	12.6854	0.321674	0.245716
12.8298	12.6859	0.322122	0.243777
12.8303	12.6864	0.322049	0.240071
12.8308	12.6868	0.325032	0.239822
12.8312	12.6873	0.322712	0.235586
12.8317	12.6878	0.322321	0.230349
12.8322	12.6883	0.323381	0.227512
12.8327	12.6887	0.325111	0.226809
12.8331	12.6892	0.324593	0.225616
12.8336	12.6897	0.323736	0.224797
12.8341	12.6901	0.326169	0.223763
12.8346	12.6906	0.324169	0.222896
12.835	12.6911	0.323281	0.225423
12.8355	12.6916	0.326055	0.231317
12.836	12.692	0.323518	0.234678
12.8364	12.6925	0.322932	0.236348
12.8369	12.6929	0.324356	0.241183
12.8374	12.6934	0.3268	0.247166
12.8379	12.6939	0.324839	0.252691
12.8383	12.6943	0.324077	0.256775
12.8388	12.6948	0.325386	0.259994
12.8393	12.6953	0.324428	0.260269
12.8397	12.6958	0.325545	0.263222
12.8402	12.6962	0.326524	0.266455
12.8407	12.6967	0.325065	0.265551
12.8412	12.6972	0.325234	0.261683
12.8416	12.6977	0.326011	0.260798
12.8421	12.6981	0.32453	0.258748
12.8426	12.6986	0.322458	0.255582
12.8431	12.6991	0.325112	0.254426
12.8435	12.6995	0.325103	0.249349
12.844	12.7	0.323649	0.243402
12.8445	12.7005	0.322793	0.241113
12.8449	12.7009	0.325048	0.240214
12.8454	12.7014	0.324328	0.236185
12.8459	12.7019	0.322914	0.231515
12.8464	12.7024	0.325974	0.229912
12.8468	12.7028	0.325804	0.229414
12.8473	12.7033	0.324678	0.231355
12.8478	12.7038	0.324996	0.23179
12.8482	12.7042	0.325862	0.233575
12.8487	12.7047	0.327413	0.238029
12.8492	12.7052	0.325195	0.242482
12.8497	12.7057	0.325403	0.252466
12.8501	12.7062	0.324511	0.261407
12.8506	12.7067	0.326051	0.268548
12.8511	12.7071	0.327015	0.278322
12.8516	12.7076	0.326579	0.290174
12.852	12.7081	0.327737	0.3056
12.8525	12.7086	0.327061	0.319334
12.853	12.709	0.326855	0.331313
12.8534	12.7095	0.328463	0.344124
12.8539	12.71	0.327082	0.359544
12.8544	12.7104	0.328966	0.374366
12.8549	12.7109	0.329811	0.389594
12.8553	12.7114	0.326357	0.397726
12.8558	12.7119	0.328292	0.41056
12.8563	12.7123	0.328865	0.421488
12.8567	12.7128	0.328676	0.435396
12.8572	12.7132	0.32715	0.440333
12.8577	12.7137	0.327117	0.450403
12.8582	12.7142	0.328503	0.455586
12.8586	12.7147	0.325657	0.46571
12.8591	12.7151	0.326996	0.475395
12.8596	12.7156	0.327644	0.484822
12.8601	12.7161	0.328792	0.491805
12.8605	12.7166	0.329034	0.500611
12.861	12.7171	0.328189	0.512175
12.8615	12.7175	0.327003	0.516687
12.8619	12.718	0.328491	0.52226
12.8624	12.7185	0.328291	0.520716
12.8629	12.7189	0.326978	0.518469
12.8634	12.7194	0.326765	0.515297
12.8638	12.7199	0.327086	0.511474
12.8643	12.7203	0.326542	0.508681
12.8648	12.7208	0.325504	0.504056
12.8652	12.7213	0.327461	0.508348
12.8657	12.7218	0.326403	0.515033
12.8662	12.7222	0.32444	0.527014
12.8667	12.7227	0.32544	0.553706
12.8671	12.7231	0.327143	0.587946
12.8676	12.7236	0.325959	0.627352
12.8681	12.7241	0.32177	0.672828
12.8686	12.7245	0.323686	0.730491
12.869	12.725	0.32241	0.778565
12.8695	12.7255	0.321699	0.815034
12.87	12.726	0.324546	0.851739
12.8704	12.7265	0.32474	0.883743
12.8709	12.7269	0.323719	0.90254
12.8714	12.7274	0.323916	0.9172
12.8719	12.7279	0.325625	0.929773
12.8723	12.7284	0.326477	0.937248
12.8728	12.7288	0.325192	0.941637
12.8733	12.7293	0.327948	0.953639
12.8737	12.7298	0.326855	0.957582
12.8742	12.7302	0.325055	0.957168
12.8747	12.7307	0.326949	0.965138
12.8752	12.7312	0.3282	0.97403
12.8756	12.7317	0.32481	0.968888
12.8761	12.7321	0.326032	0.975131
12.8766	12.7326	0.32662	0.976325
12.8771	12.7331	0.32764	0.976088
12.8775	12.7335	0.326753	0.975336
12.878	12.734	0.327969	0.982482
12.8785	12.7345	0.326482	0.983219
12.8789	12.735	0.325235	0.977591
12.8794	12.7355	0.328889	0.987225
12.8799	12.7359	0.327545	0.991286
12.8804	12.7364	0.326716	0.987454
12.8808	12.7369	0.326567	0.985674
12.8813	12.7374	0.330033	0.992858
12.8818	12.7379	0.330439	0.993506
12.8822	12.7383	0.327354	0.991475
12.8827	12.7388	0.328148	0.994943
12.8832	12.7393	0.328563	0.994379
12.8837	12.7397	0.327686	0.992598
12.8841	12.7402	0.331107	0.996733
12.8846	12.7407	0.32975	0.99759
12.8851	12.7411	0.32805	0.997355
12.8856	12.7416	0.329255	0.996713
12.886	12.7421	0.329527	0.997557
12.8865	12.7425	0.330371	0.997887
12.887	12.743	0.326224	0.993201
12.8874	12.7435	0.329291	1.00213
12.8879	12.744	0.329564	1.00284
12.8884	12.7444	0.32888	0.997699
12.8889	12.7449	0.331237	1.00622
12.8893	12.7454	0.329923	1.00515
12.8898	12.7459	0.328282	1.00602
12.8903	12.7463	0.330017	1.0074
12.8907	12.7468	0.330678	1.00776
12.8912	12.7473	0.332626	1.00458
12.8917	12.7478	0.330353	1.00412
12.8922	12.7482	0.332145	1.01093
12.8926	12.7487	0.330412	1.00672
12.8931	12.7492	0.329815	1.00233
12.8936	12.7496	0.332711	1.01029
12.8941	12.7501	0.331048	1.00608
12.8945	12.7506	0.328683	1.00586
12.895	12.751	0.330415	1.00734
12.8955	12.7515	0.331135	1.0087
12.8959	12.752	0.331905	1.00634
12.8964	12.7524	0.331414	1.00785
12.8969	12.7529	0.331353	1.01395
12.8974	12.7534	0.330363	1.00566
12.8978	12.7538	0.330072	1.00565
12.8983	12.7543	0.333499	1.01017
12.8988	12.7548	0.331935	1.01394
