# 1304     AichiSR QXAFS
# Start     : 8.9544
# End       : 9.0544
# Dir       : Forward
# Points    : 300
# ScanTime  : 1.01549
# Date      : 13.04.23 22:26
# Ring Cur. : 25.4[mA]
12.7557	12.7557	0.398115	1.21065
12.7562	12.7553	0.395657	1.21026
12.7566	12.7548	0.397956	1.20975
12.7571	12.7543	0.397663	1.20672
12.7576	12.7538	0.3957	1.20864
12.7581	12.7534	0.393649	1.2034
12.7585	12.7529	0.397324	1.20712
12.759	12.7524	0.39756	1.20651
12.7595	12.752	0.396577	1.20913
12.7599	12.7515	0.396204	1.20767
12.7604	12.751	0.395855	1.20385
12.7609	12.7506	0.396469	1.20444
12.7614	12.7501	0.394586	1.20231
12.7618	12.7496	0.395987	1.20554
12.7623	12.7492	0.395067	1.2053
12.7628	12.7487	0.394867	1.20079
12.7632	12.7482	0.396368	1.20092
12.7637	12.7478	0.394509	1.20283
12.7642	12.7473	0.394686	1.20367
12.7647	12.7468	0.394479	1.20303
12.7651	12.7463	0.395205	1.1997
12.7656	12.7459	0.397121	1.20137
12.7661	12.7454	0.399196	1.21337
12.7666	12.7449	0.396863	1.2077
12.767	12.7444	0.394738	1.20059
12.7675	12.744	0.394393	1.19613
12.768	12.7435	0.395549	1.19807
12.7684	12.743	0.394704	1.19754
12.7689	12.7426	0.394982	1.198
12.7694	12.7421	0.394512	1.19623
12.7699	12.7416	0.393411	1.19629
12.7703	12.7411	0.394781	1.19581
12.7708	12.7407	0.395459	1.1922
12.7713	12.7402	0.395523	1.19588
12.7717	12.7397	0.394149	1.19336
12.7722	12.7393	0.39316	1.18881
12.7727	12.7388	0.393984	1.19052
12.7732	12.7383	0.393309	1.19062
12.7736	12.7379	0.393195	1.19116
12.7741	12.7374	0.392543	1.18792
12.7746	12.7369	0.393881	1.18537
12.7751	12.7364	0.39468	1.18748
12.7755	12.7359	0.395559	1.18779
12.776	12.7355	0.394413	1.18871
12.7765	12.735	0.393015	1.18498
12.7769	12.7345	0.394237	1.17819
12.7774	12.734	0.395955	1.18259
12.7779	12.7335	0.395884	1.17996
12.7784	12.7331	0.393487	1.18183
12.7788	12.7326	0.393332	1.18062
12.7793	12.7321	0.394314	1.17667
12.7798	12.7317	0.397216	1.17171
12.7802	12.7312	0.395738	1.17212
12.7807	12.7307	0.394678	1.17122
12.7812	12.7302	0.392798	1.16598
12.7817	12.7298	0.39312	1.15752
12.7821	12.7293	0.395479	1.155
12.7826	12.7288	0.394633	1.15313
12.7831	12.7284	0.394876	1.1506
12.7836	12.7279	0.394635	1.14211
12.784	12.7274	0.392861	1.12842
12.7845	12.727	0.395829	1.11586
12.785	12.7265	0.393526	1.10274
12.7854	12.726	0.392731	1.08387
12.7859	12.7255	0.392719	1.05346
12.7864	12.725	0.387875	1.00853
12.7869	12.7246	0.390873	0.962838
12.7873	12.7241	0.390711	0.91336
12.7878	12.7236	0.390829	0.855732
12.7883	12.7232	0.392148	0.794392
12.7887	12.7227	0.392412	0.733988
12.7892	12.7222	0.395472	0.687917
12.7897	12.7218	0.396077	0.656294
12.7902	12.7213	0.396971	0.636415
12.7906	12.7208	0.39556	0.619239
12.7911	12.7203	0.395357	0.61074
12.7916	12.7199	0.396567	0.610955
12.7921	12.7194	0.395882	0.616421
12.7925	12.719	0.394912	0.620565
12.793	12.7185	0.395264	0.626053
12.7935	12.718	0.395228	0.626871
12.7939	12.7176	0.396404	0.627887
12.7944	12.7171	0.394548	0.624787
12.7949	12.7166	0.396489	0.623133
12.7954	12.7161	0.396799	0.611224
12.7958	12.7156	0.39416	0.597843
12.7963	12.7152	0.397348	0.585855
12.7968	12.7147	0.395589	0.579697
12.7972	12.7142	0.394884	0.569005
12.7977	12.7137	0.397156	0.558654
12.7982	12.7133	0.395702	0.546946
12.7987	12.7128	0.396923	0.535583
12.7991	12.7123	0.396545	0.526803
12.7996	12.7119	0.3953	0.516767
12.8001	12.7114	0.396245	0.502008
12.8006	12.7109	0.394891	0.486492
12.801	12.7104	0.396883	0.4724
12.8015	12.71	0.396525	0.459663
12.802	12.7095	0.394724	0.443354
12.8024	12.709	0.396125	0.42681
12.8029	12.7086	0.396371	0.409626
12.8034	12.7081	0.39734	0.390753
12.8039	12.7076	0.396827	0.376373
12.8043	12.7071	0.397238	0.364647
12.8048	12.7067	0.39654	0.349105
12.8053	12.7062	0.39705	0.332189
12.8057	12.7057	0.396439	0.320181
12.8062	12.7052	0.396478	0.310986
12.8067	12.7047	0.39447	0.301175
12.8072	12.7043	0.395778	0.292951
12.8076	12.7038	0.395593	0.284628
12.8081	12.7033	0.396241	0.28071
12.8086	12.7028	0.397305	0.279732
12.8091	12.7024	0.396871	0.279495
12.8095	12.7019	0.395478	0.279876
12.81	12.7015	0.397685	0.279535
12.8105	12.701	0.397076	0.283689
12.8109	12.7005	0.397535	0.289614
12.8114	12.7	0.397093	0.292897
12.8119	12.6996	0.396876	0.297225
12.8124	12.6991	0.396331	0.300759
12.8128	12.6986	0.397994	0.305531
12.8133	12.6982	0.396883	0.311027
12.8138	12.6977	0.396907	0.315905
12.8142	12.6972	0.397826	0.31709
12.8147	12.6967	0.396467	0.319006
12.8152	12.6963	0.396072	0.31948
12.8157	12.6958	0.396459	0.322125
12.8161	12.6953	0.394175	0.321906
12.8166	12.6948	0.396254	0.320292
12.8171	12.6944	0.396832	0.315375
12.8176	12.6939	0.397226	0.313494
12.818	12.6934	0.396877	0.310614
12.8185	12.693	0.395907	0.305245
12.819	12.6925	0.397309	0.300469
12.8194	12.692	0.396127	0.292563
12.8199	12.6916	0.397511	0.287412
12.8204	12.6911	0.397104	0.283698
12.8209	12.6906	0.396296	0.27821
12.8213	12.6901	0.395957	0.27431
12.8218	12.6897	0.394147	0.271279
12.8223	12.6892	0.395875	0.272026
12.8227	12.6888	0.395427	0.273282
12.8232	12.6883	0.394918	0.274848
12.8237	12.6878	0.395437	0.276011
12.8242	12.6873	0.396421	0.278439
12.8246	12.6869	0.394888	0.28388
12.8251	12.6864	0.395443	0.288404
12.8256	12.6859	0.394355	0.291972
12.8261	12.6854	0.393452	0.296045
12.8265	12.6849	0.394535	0.299032
12.827	12.6845	0.395052	0.303511
12.8275	12.684	0.39208	0.306983
12.8279	12.6835	0.393195	0.311037
12.8284	12.683	0.393081	0.311636
12.8289	12.6826	0.392648	0.314557
12.8294	12.6821	0.392963	0.318233
12.8298	12.6817	0.393175	0.323057
12.8303	12.6812	0.393219	0.325518
12.8308	12.6807	0.395581	0.329084
12.8312	12.6802	0.395215	0.329805
12.8317	12.6797	0.395809	0.333543
12.8322	12.6793	0.39638	0.335865
12.8327	12.6788	0.395062	0.34072
12.8331	12.6784	0.39455	0.338568
12.8336	12.6779	0.394927	0.337428
12.8341	12.6774	0.396526	0.340958
12.8346	12.6769	0.396889	0.341085
12.835	12.6764	0.394053	0.340706
12.8355	12.676	0.394392	0.339013
12.836	12.6755	0.395688	0.339237
12.8364	12.675	0.394981	0.338123
12.8369	12.6745	0.395864	0.337768
12.8374	12.674	0.395435	0.338038
12.8379	12.6736	0.392381	0.335008
12.8383	12.6731	0.39512	0.333877
12.8388	12.6726	0.395118	0.333826
12.8393	12.6722	0.39542	0.334655
12.8397	12.6717	0.393602	0.331456
12.8402	12.6712	0.394812	0.328562
12.8407	12.6708	0.395193	0.325759
12.8412	12.6703	0.395198	0.324754
12.8416	12.6698	0.394769	0.323095
12.8421	12.6694	0.393501	0.320855
12.8426	12.6689	0.391944	0.31644
12.8431	12.6684	0.393989	0.313592
12.8435	12.668	0.393371	0.311901
12.844	12.6675	0.394851	0.310829
12.8445	12.667	0.392117	0.306975
12.8449	12.6665	0.394604	0.304616
12.8454	12.6661	0.394458	0.30185
12.8459	12.6656	0.393573	0.297422
12.8464	12.6651	0.393899	0.298094
12.8468	12.6646	0.393372	0.296461
12.8473	12.6642	0.390553	0.292079
12.8478	12.6637	0.393666	0.28947
12.8482	12.6632	0.394258	0.288541
12.8487	12.6628	0.393673	0.288426
12.8492	12.6623	0.392967	0.285432
12.8497	12.6618	0.391452	0.282165
12.8501	12.6614	0.392655	0.278523
12.8506	12.6609	0.393703	0.277671
12.8511	12.6604	0.392635	0.277113
12.8516	12.6599	0.391303	0.276181
12.852	12.6595	0.391959	0.272165
12.8525	12.659	0.390836	0.270349
12.853	12.6585	0.392087	0.270689
12.8534	12.6581	0.391726	0.270929
12.8539	12.6576	0.39084	0.269522
12.8544	12.6571	0.389951	0.267976
12.8549	12.6566	0.392936	0.268441
12.8553	12.6562	0.392506	0.269908
12.8558	12.6557	0.391523	0.271665
12.8563	12.6552	0.389333	0.272508
12.8567	12.6547	0.390184	0.271383
12.8572	12.6542	0.391014	0.272721
12.8577	12.6538	0.392159	0.276352
12.8582	12.6533	0.391463	0.27996
12.8586	12.6528	0.388935	0.28054
12.8591	12.6524	0.389787	0.281567
12.8596	12.6519	0.392807	0.284201
12.8601	12.6514	0.393034	0.285302
12.8605	12.651	0.391101	0.290463
12.861	12.6505	0.390175	0.291903
12.8615	12.65	0.390816	0.292432
12.8619	12.6495	0.391792	0.29557
12.8624	12.6491	0.39182	0.298517
12.8629	12.6486	0.390687	0.302058
12.8634	12.6481	0.390031	0.303104
12.8638	12.6477	0.390001	0.303462
12.8643	12.6472	0.390209	0.304756
12.8648	12.6467	0.389094	0.307153
12.8652	12.6462	0.387668	0.308887
12.8657	12.6457	0.386007	0.310126
12.8662	12.6453	0.386299	0.309736
12.8667	12.6448	0.38624	0.309457
12.8671	12.6443	0.387414	0.312095
12.8676	12.6438	0.387332	0.314854
12.8681	12.6434	0.386207	0.313972
12.8686	12.6429	0.38806	0.314325
12.869	12.6424	0.389857	0.31592
12.8695	12.642	0.390564	0.317525
12.87	12.6415	0.388607	0.318827
12.8704	12.641	0.388319	0.318605
12.8709	12.6405	0.388979	0.316052
12.8714	12.6401	0.389569	0.316394
12.8719	12.6396	0.38959	0.317668
12.8723	12.6392	0.387656	0.317784
12.8728	12.6387	0.388735	0.315538
12.8733	12.6382	0.389351	0.314552
12.8737	12.6378	0.390952	0.314631
12.8742	12.6373	0.387952	0.313677
12.8747	12.6368	0.388513	0.314033
12.8752	12.6363	0.38752	0.312476
12.8756	12.6359	0.38772	0.310473
12.8761	12.6354	0.387947	0.310525
12.8766	12.6349	0.388403	0.309464
12.8771	12.6344	0.388901	0.311526
12.8775	12.634	0.386936	0.309315
12.878	12.6335	0.387799	0.307551
12.8785	12.633	0.387974	0.306649
12.8789	12.6326	0.389376	0.308433
12.8794	12.6321	0.386857	0.309261
12.8799	12.6316	0.388031	0.309602
12.8804	12.6311	0.386417	0.30824
12.8808	12.6307	0.388733	0.307708
12.8813	12.6302	0.388785	0.308011
12.8818	12.6297	0.385894	0.310919
12.8822	12.6293	0.386394	0.309082
12.8827	12.6288	0.386406	0.30764
12.8832	12.6283	0.388181	0.308392
12.8837	12.6279	0.386355	0.310051
12.8841	12.6274	0.386844	0.30985
12.8846	12.6269	0.386295	0.309148
12.8851	12.6264	0.385616	0.306537
12.8856	12.6259	0.387593	0.307639
12.886	12.6255	0.386829	0.30761
12.8865	12.625	0.384837	0.308072
12.887	12.6245	0.38513	0.305766
12.8874	12.624	0.385015	0.302803
12.8879	12.6235	0.386186	0.303708
12.8884	12.6231	0.383671	0.302688
12.8889	12.6226	0.384443	0.30235
12.8893	12.6221	0.384407	0.301882
12.8898	12.6217	0.384812	0.299236
12.8903	12.6212	0.386282	0.298993
12.8907	12.6207	0.385213	0.300327
12.8912	12.6202	0.385144	0.299483
12.8917	12.6198	0.383206	0.299693
12.8922	12.6193	0.384054	0.296787
12.8926	12.6188	0.386231	0.298245
12.8931	12.6184	0.384467	0.298413
12.8936	12.6179	0.382962	0.298722
12.8941	12.6174	0.382616	0.298545
12.8945	12.6169	0.381329	0.29667
12.895	12.6165	0.382672	0.296761
12.8955	12.616	0.382454	0.29749
12.8959	12.6155	0.383062	0.299586
12.8964	12.615	0.380984	0.296231
12.8969	12.6146	0.379954	0.295065
12.8974	12.6141	0.382791	0.296615
12.8978	12.6136	0.382013	0.295286
12.8983	12.6131	0.381258	0.295188
12.8988	12.6127	0.381799	0.294066
