# 1304     AichiSR QXAFS
# Start     : 8.9544
# End       : 9.0544
# Dir       : Backward
# Points    : 300
# ScanTime  : 1.01549
# Date      : 13.04.23 22:28
# Ring Cur. : 25.4[mA]
12.7557	12.6118	0.297963	0.225788
12.7562	12.6123	0.294427	0.226341
12.7566	12.6127	0.295148	0.22749
12.7571	12.6132	0.297067	0.229509
12.7576	12.6136	0.296275	0.228188
12.7581	12.6141	0.298121	0.228747
12.7585	12.6146	0.297989	0.231084
12.759	12.6151	0.294603	0.229876
12.7595	12.6155	0.29705	0.232299
12.7599	12.616	0.297016	0.230941
12.7604	12.6165	0.29876	0.230729
12.7609	12.617	0.296937	0.231913
12.7614	12.6174	0.296616	0.232524
12.7618	12.6179	0.297503	0.232203
12.7623	12.6184	0.295178	0.23052
12.7628	12.6189	0.301149	0.233071
12.7632	12.6193	0.296892	0.232643
12.7637	12.6198	0.297372	0.232532
12.7642	12.6203	0.297383	0.233701
12.7647	12.6207	0.298227	0.231762
12.7651	12.6212	0.300399	0.232411
12.7656	12.6217	0.294857	0.232243
12.7661	12.6222	0.296833	0.234641
12.7666	12.6226	0.297361	0.234166
12.767	12.6231	0.297122	0.232513
12.7675	12.6236	0.298912	0.233851
12.768	12.624	0.29667	0.235908
12.7684	12.6245	0.297673	0.237355
12.7689	12.625	0.295762	0.23602
12.7694	12.6255	0.298425	0.235465
12.7699	12.626	0.300693	0.238348
12.7703	12.6264	0.298502	0.237829
12.7708	12.6269	0.297569	0.238493
12.7713	12.6274	0.298697	0.239779
12.7717	12.6279	0.297666	0.237428
12.7722	12.6283	0.298728	0.238812
12.7727	12.6288	0.297889	0.240132
12.7732	12.6293	0.298571	0.240409
12.7736	12.6297	0.297337	0.239171
12.7741	12.6302	0.29886	0.238275
12.7746	12.6307	0.300066	0.238804
12.7751	12.6312	0.298283	0.238669
12.7755	12.6316	0.300143	0.24101
12.776	12.6321	0.29783	0.239843
12.7765	12.6326	0.297118	0.236818
12.7769	12.633	0.299763	0.238818
12.7774	12.6335	0.296847	0.239361
12.7779	12.634	0.298345	0.240197
12.7784	12.6344	0.29793	0.239037
12.7788	12.6349	0.299331	0.239071
12.7793	12.6354	0.301118	0.240484
12.7798	12.6359	0.299544	0.241171
12.7802	12.6363	0.298986	0.241959
12.7807	12.6368	0.296692	0.241298
12.7812	12.6373	0.298251	0.239551
12.7817	12.6378	0.302724	0.241808
12.7821	12.6382	0.299408	0.244284
12.7826	12.6387	0.298812	0.244391
12.7831	12.6392	0.297117	0.242528
12.7836	12.6396	0.30036	0.244648
12.784	12.6401	0.305403	0.245994
12.7845	12.6406	0.301681	0.24531
12.785	12.641	0.301756	0.248074
12.7854	12.6415	0.300558	0.246524
12.7859	12.642	0.299338	0.244629
12.7864	12.6424	0.302685	0.245593
12.7869	12.6429	0.302139	0.246149
12.7873	12.6434	0.298289	0.244767
12.7878	12.6438	0.298172	0.243805
12.7883	12.6443	0.299636	0.243897
12.7887	12.6448	0.300568	0.242104
12.7892	12.6453	0.298268	0.240437
12.7897	12.6458	0.298711	0.241116
12.7902	12.6462	0.297864	0.240099
12.7906	12.6467	0.298609	0.239188
12.7911	12.6472	0.301835	0.238687
12.7916	12.6477	0.300467	0.239284
12.7921	12.6482	0.300798	0.23761
12.7925	12.6486	0.300925	0.234697
12.793	12.6491	0.302111	0.233777
12.7935	12.6496	0.305153	0.233782
12.7939	12.65	0.302246	0.231398
12.7944	12.6505	0.301438	0.229882
12.7949	12.651	0.302787	0.226779
12.7954	12.6515	0.302112	0.225395
12.7958	12.6519	0.305037	0.223741
12.7963	12.6524	0.303879	0.222963
12.7968	12.6529	0.302075	0.220079
12.7972	12.6533	0.304117	0.219665
12.7977	12.6538	0.304816	0.218157
12.7982	12.6543	0.307218	0.216556
12.7987	12.6547	0.305468	0.216072
12.7991	12.6552	0.305544	0.215651
12.7996	12.6557	0.306135	0.21468
12.8001	12.6562	0.306978	0.211738
12.8006	12.6567	0.307683	0.211968
12.801	12.6571	0.307372	0.212608
12.8015	12.6576	0.305107	0.211816
12.802	12.6581	0.304741	0.209851
12.8024	12.6586	0.306981	0.2106
12.8029	12.659	0.306216	0.210968
12.8034	12.6595	0.306782	0.213542
12.8039	12.66	0.305991	0.214861
12.8043	12.6604	0.307237	0.214842
12.8048	12.6609	0.307899	0.21651
12.8053	12.6614	0.311376	0.219657
12.8057	12.6619	0.31006	0.221938
12.8062	12.6623	0.307284	0.223013
12.8067	12.6628	0.309948	0.224279
12.8072	12.6632	0.310549	0.226231
12.8076	12.6637	0.311166	0.228218
12.8081	12.6642	0.309264	0.227956
12.8086	12.6646	0.308529	0.231048
12.8091	12.6651	0.307818	0.229662
12.8095	12.6656	0.308364	0.231949
12.81	12.6661	0.310753	0.235547
12.8105	12.6666	0.310669	0.238145
12.8109	12.667	0.310011	0.24015
12.8114	12.6675	0.309237	0.240727
12.8119	12.668	0.31151	0.244039
12.8124	12.6685	0.312161	0.247606
12.8128	12.6689	0.31271	0.249993
12.8133	12.6694	0.311443	0.250829
12.8138	12.6698	0.311009	0.251949
12.8142	12.6703	0.312036	0.252836
12.8147	12.6708	0.312229	0.256162
12.8152	12.6713	0.313154	0.260616
12.8157	12.6717	0.309255	0.258486
12.8161	12.6722	0.30937	0.259381
12.8166	12.6727	0.312996	0.262496
12.8171	12.6731	0.3139	0.264342
12.8176	12.6736	0.312694	0.265578
12.818	12.6741	0.312479	0.26724
12.8185	12.6745	0.312659	0.267187
12.819	12.675	0.3127	0.265866
12.8194	12.6755	0.314605	0.270284
12.8199	12.676	0.315297	0.271856
12.8204	12.6765	0.312234	0.271139
12.8209	12.6769	0.311367	0.269844
12.8213	12.6774	0.315648	0.270366
12.8218	12.6779	0.314439	0.271518
12.8223	12.6784	0.312562	0.272043
12.8227	12.6788	0.312448	0.270169
12.8232	12.6793	0.312826	0.267049
12.8237	12.6798	0.312706	0.266953
12.8242	12.6802	0.315144	0.267424
12.8246	12.6807	0.316118	0.267987
12.8251	12.6812	0.312764	0.263107
12.8256	12.6817	0.313949	0.25986
12.8261	12.6821	0.317138	0.258804
12.8265	12.6826	0.316491	0.257591
12.827	12.6831	0.315465	0.2547
12.8275	12.6835	0.314646	0.254117
12.8279	12.684	0.31351	0.248739
12.8284	12.6845	0.31424	0.244856
12.8289	12.685	0.315931	0.244464
12.8294	12.6855	0.315833	0.243439
12.8298	12.6859	0.312473	0.239396
12.8303	12.6864	0.313492	0.235056
12.8308	12.6869	0.315398	0.231418
12.8312	12.6874	0.316801	0.229013
12.8317	12.6878	0.316694	0.227846
12.8322	12.6883	0.318526	0.225997
12.8327	12.6888	0.314218	0.218791
12.8331	12.6892	0.317982	0.218457
12.8336	12.6897	0.318953	0.219133
12.8341	12.6902	0.317674	0.221064
12.8346	12.6906	0.31504	0.22068
12.835	12.6911	0.316493	0.219969
12.8355	12.6916	0.317659	0.2246
12.836	12.6921	0.317317	0.229055
12.8364	12.6925	0.317184	0.235099
12.8369	12.693	0.31631	0.239132
12.8374	12.6934	0.314881	0.240088
12.8379	12.6939	0.316146	0.24446
12.8383	12.6944	0.318083	0.249817
12.8388	12.6949	0.318686	0.254927
12.8393	12.6953	0.316202	0.255812
12.8397	12.6958	0.315143	0.256255
12.8402	12.6963	0.317574	0.257437
12.8407	12.6968	0.319033	0.25775
12.8412	12.6972	0.317892	0.258349
12.8416	12.6977	0.316311	0.256128
12.8421	12.6982	0.316465	0.252159
12.8426	12.6987	0.315855	0.248101
12.8431	12.6991	0.317735	0.245357
12.8435	12.6996	0.317461	0.244917
12.844	12.7	0.315731	0.240275
12.8445	12.7005	0.31429	0.234846
12.8449	12.701	0.317771	0.232731
12.8454	12.7015	0.317046	0.229184
12.8459	12.7019	0.316473	0.227477
12.8464	12.7024	0.317715	0.227051
12.8468	12.7029	0.316413	0.223654
12.8473	12.7033	0.317743	0.222079
12.8478	12.7038	0.317722	0.225018
12.8482	12.7043	0.318598	0.230376
12.8487	12.7048	0.317378	0.232199
12.8492	12.7053	0.317669	0.236352
12.8497	12.7057	0.318518	0.242729
12.8501	12.7062	0.318165	0.252315
12.8506	12.7067	0.317697	0.261874
12.8511	12.7072	0.317609	0.273998
12.8516	12.7077	0.317596	0.282832
12.852	12.7081	0.317549	0.293177
12.8525	12.7086	0.318928	0.308753
12.853	12.7091	0.321066	0.325058
12.8534	12.7095	0.318139	0.335543
12.8539	12.71	0.319244	0.349165
12.8544	12.7105	0.320575	0.364133
12.8549	12.711	0.321021	0.376953
12.8553	12.7114	0.321199	0.391
12.8558	12.7119	0.318363	0.400653
12.8563	12.7124	0.320319	0.409114
12.8567	12.7128	0.320412	0.421106
12.8572	12.7133	0.319289	0.429041
12.8577	12.7138	0.31887	0.437685
12.8582	12.7142	0.318257	0.447496
12.8586	12.7147	0.317263	0.451214
12.8591	12.7152	0.318501	0.461469
12.8596	12.7157	0.319	0.472243
12.8601	12.7162	0.318737	0.481018
12.8605	12.7166	0.320185	0.490005
12.861	12.7171	0.32039	0.496421
12.8615	12.7176	0.321031	0.502896
12.8619	12.7181	0.32071	0.508342
12.8624	12.7185	0.31952	0.510355
12.8629	12.719	0.316	0.503814
12.8634	12.7194	0.314994	0.499729
12.8638	12.7199	0.319	0.498404
12.8643	12.7204	0.31757	0.494238
12.8648	12.7208	0.315872	0.49099
12.8652	12.7213	0.316746	0.496013
12.8657	12.7218	0.316399	0.502947
12.8662	12.7223	0.315749	0.509593
12.8667	12.7227	0.317875	0.537631
12.8671	12.7232	0.319532	0.572534
12.8676	12.7236	0.315049	0.608676
12.8681	12.7241	0.314325	0.654036
12.8686	12.7246	0.315489	0.710941
12.869	12.7251	0.313997	0.755528
12.8695	12.7255	0.313959	0.798681
12.87	12.726	0.315097	0.834755
12.8704	12.7265	0.313659	0.85378
12.8709	12.727	0.314448	0.874499
12.8714	12.7274	0.318901	0.893784
12.8719	12.7279	0.318193	0.908274
12.8723	12.7284	0.314586	0.910318
12.8728	12.7289	0.31489	0.912314
12.8733	12.7293	0.318677	0.927535
12.8737	12.7298	0.317971	0.931356
12.8742	12.7303	0.317926	0.938658
12.8747	12.7307	0.317665	0.939414
12.8752	12.7312	0.316683	0.942901
12.8756	12.7317	0.318399	0.944747
12.8761	12.7322	0.318059	0.946857
12.8766	12.7326	0.318722	0.950732
12.8771	12.7331	0.316438	0.94945
12.8775	12.7336	0.316435	0.950376
12.878	12.7341	0.318761	0.952028
12.8785	12.7345	0.318522	0.958746
12.8789	12.735	0.318558	0.960127
12.8794	12.7355	0.31751	0.959692
12.8799	12.736	0.319638	0.957396
12.8804	12.7365	0.319865	0.960037
12.8808	12.7369	0.320115	0.963869
12.8813	12.7374	0.320476	0.969608
12.8818	12.7379	0.318343	0.963636
12.8822	12.7384	0.316193	0.960529
12.8827	12.7388	0.321616	0.968904
12.8832	12.7393	0.320891	0.970806
12.8837	12.7398	0.320217	0.970276
12.8841	12.7402	0.319768	0.972721
12.8846	12.7407	0.319293	0.971389
12.8851	12.7412	0.319606	0.963258
12.8856	12.7417	0.319053	0.969612
12.886	12.7421	0.322349	0.979239
12.8865	12.7426	0.320148	0.973198
12.887	12.7431	0.318332	0.964716
12.8874	12.7435	0.320926	0.969324
12.8879	12.744	0.323968	0.979323
12.8884	12.7445	0.321352	0.981187
12.8889	12.7449	0.32154	0.97831
12.8893	12.7454	0.319981	0.971532
12.8898	12.7459	0.322995	0.97756
12.8903	12.7464	0.321797	0.982422
12.8907	12.7469	0.322199	0.981383
12.8912	12.7473	0.320895	0.974245
12.8917	12.7478	0.320623	0.976779
12.8922	12.7483	0.324399	0.983645
12.8926	12.7487	0.321291	0.976949
12.8931	12.7492	0.321145	0.978157
12.8936	12.7497	0.323291	0.983794
12.8941	12.7501	0.322449	0.98186
12.8945	12.7506	0.320581	0.975052
12.895	12.7511	0.322455	0.981768
12.8955	12.7516	0.323659	0.989331
12.8959	12.752	0.322762	0.984079
12.8964	12.7525	0.319918	0.976881
12.8969	12.7529	0.32094	0.977515
12.8974	12.7534	0.321455	0.981084
12.8978	12.7539	0.321791	0.982731
12.8983	12.7543	0.320858	0.982879
12.8988	12.7548	0.319557	0.977886
