# 1304     AichiSR QXAFS
# Start     : 8.9544
# End       : 9.0544
# Dir       : Backward
# Points    : 300
# ScanTime  : 1.01549
# Date      : 13.04.23 22:31
# Ring Cur. : 25.6[mA]
12.7557	12.6118	0.302122	0.231451
12.7562	12.6123	0.298547	0.229997
12.7566	12.6127	0.300913	0.231263
12.7571	12.6132	0.302279	0.231047
12.7576	12.6137	0.301313	0.232168
12.7581	12.6141	0.301935	0.235029
12.7585	12.6146	0.303436	0.236936
12.759	12.6151	0.299867	0.232597
12.7595	12.6156	0.301336	0.232761
12.7599	12.616	0.303327	0.236068
12.7604	12.6165	0.302869	0.236043
12.7609	12.617	0.301819	0.237431
12.7614	12.6175	0.301131	0.235591
12.7618	12.618	0.305755	0.235802
12.7623	12.6184	0.303791	0.237889
12.7628	12.6189	0.305782	0.239386
12.7632	12.6194	0.304569	0.238583
12.7637	12.6198	0.304212	0.236672
12.7642	12.6203	0.304041	0.23648
12.7647	12.6208	0.305908	0.237511
12.7651	12.6213	0.303052	0.23896
12.7656	12.6217	0.303617	0.238385
12.7661	12.6222	0.30428	0.23849
12.7666	12.6227	0.303414	0.236668
12.767	12.6231	0.304887	0.238727
12.7675	12.6236	0.306035	0.241908
12.768	12.6241	0.307229	0.243964
12.7684	12.6246	0.30575	0.241452
12.7689	12.625	0.306137	0.24224
12.7694	12.6255	0.308073	0.244917
12.7699	12.626	0.307617	0.24573
12.7703	12.6265	0.306173	0.245142
12.7708	12.627	0.306047	0.243856
12.7713	12.6274	0.308402	0.245241
12.7717	12.6279	0.306997	0.246117
12.7722	12.6284	0.304455	0.247178
12.7727	12.6288	0.306126	0.24761
12.7732	12.6293	0.306866	0.245296
12.7736	12.6298	0.306845	0.243962
12.7741	12.6302	0.307625	0.247307
12.7746	12.6307	0.308509	0.247229
12.7751	12.6312	0.306312	0.246918
12.7755	12.6317	0.3103	0.247066
12.776	12.6321	0.311214	0.246237
12.7765	12.6326	0.307604	0.247038
12.7769	12.6331	0.30885	0.248131
12.7774	12.6335	0.311603	0.249366
12.7779	12.634	0.308396	0.245363
12.7784	12.6345	0.310141	0.246118
12.7788	12.6349	0.31091	0.248239
12.7793	12.6354	0.308066	0.248793
12.7798	12.6359	0.308864	0.24945
12.7802	12.6364	0.309783	0.249314
12.7807	12.6369	0.311581	0.247881
12.7812	12.6373	0.309221	0.249893
12.7817	12.6378	0.312518	0.254307
12.7821	12.6383	0.310693	0.252224
12.7826	12.6387	0.311655	0.252882
12.7831	12.6392	0.314983	0.254591
12.7836	12.6397	0.314599	0.256463
12.784	12.6401	0.312362	0.253618
12.7845	12.6406	0.312061	0.254961
12.785	12.6411	0.313626	0.255639
12.7854	12.6416	0.313283	0.254079
12.7859	12.642	0.310039	0.253326
12.7864	12.6425	0.310203	0.25599
12.7869	12.6429	0.311893	0.254952
12.7873	12.6434	0.310489	0.252154
12.7878	12.6439	0.31333	0.252561
12.7883	12.6443	0.313379	0.254235
12.7887	12.6448	0.311402	0.253943
12.7892	12.6453	0.311145	0.250876
12.7897	12.6458	0.312644	0.251259
12.7902	12.6463	0.314421	0.250401
12.7906	12.6467	0.311697	0.250093
12.7911	12.6472	0.312389	0.249175
12.7916	12.6477	0.311636	0.247889
12.7921	12.6482	0.311246	0.244036
12.7925	12.6487	0.31363	0.243673
12.793	12.6491	0.313504	0.243639
12.7935	12.6496	0.316603	0.242898
12.7939	12.6501	0.314297	0.239334
12.7944	12.6505	0.313996	0.236762
12.7949	12.651	0.318082	0.237185
12.7954	12.6515	0.31553	0.235553
12.7958	12.652	0.316871	0.236604
12.7963	12.6524	0.317766	0.233507
12.7968	12.6529	0.316615	0.229434
12.7972	12.6534	0.318162	0.227943
12.7977	12.6538	0.31776	0.227075
12.7982	12.6543	0.316938	0.226603
12.7987	12.6548	0.315393	0.222326
12.7991	12.6553	0.315335	0.220213
12.7996	12.6557	0.317224	0.220659
12.8001	12.6562	0.315947	0.2192
12.8006	12.6567	0.316766	0.221564
12.801	12.6572	0.317585	0.219957
12.8015	12.6577	0.316117	0.217552
12.802	12.6581	0.320151	0.219304
12.8024	12.6586	0.319009	0.222069
12.8029	12.6591	0.319197	0.222184
12.8034	12.6595	0.318853	0.221267
12.8039	12.66	0.317638	0.220789
12.8043	12.6605	0.320445	0.223631
12.8048	12.6609	0.319529	0.225317
12.8053	12.6614	0.320052	0.228436
12.8057	12.6619	0.319593	0.22875
12.8062	12.6623	0.31949	0.227796
12.8067	12.6628	0.320061	0.230846
12.8072	12.6633	0.319063	0.233626
12.8076	12.6637	0.319948	0.235516
12.8081	12.6642	0.319597	0.236183
12.8086	12.6647	0.319286	0.236737
12.8091	12.6652	0.321382	0.239309
12.8095	12.6656	0.320695	0.242326
12.81	12.6661	0.32323	0.246407
12.8105	12.6666	0.322387	0.246374
12.8109	12.6671	0.319264	0.246872
12.8114	12.6675	0.321181	0.250186
12.8119	12.668	0.323871	0.253779
12.8124	12.6685	0.321149	0.257085
12.8128	12.6689	0.319665	0.254908
12.8133	12.6694	0.319932	0.257021
12.8138	12.6699	0.321456	0.260206
12.8142	12.6703	0.320651	0.261975
12.8147	12.6708	0.319624	0.266305
12.8152	12.6713	0.322833	0.267183
12.8157	12.6718	0.3212	0.266444
12.8161	12.6722	0.32156	0.267421
12.8166	12.6727	0.323559	0.27299
12.8171	12.6732	0.321542	0.274061
12.8176	12.6736	0.321521	0.271902
12.818	12.6741	0.322818	0.2745
12.8185	12.6746	0.324945	0.275554
12.819	12.6751	0.320447	0.275439
12.8194	12.6755	0.320601	0.27842
12.8199	12.676	0.323422	0.278548
12.8204	12.6765	0.319235	0.275029
12.8209	12.677	0.321354	0.275931
12.8213	12.6775	0.322584	0.280008
12.8218	12.6779	0.320933	0.279061
12.8223	12.6784	0.319105	0.276582
12.8227	12.6789	0.323313	0.277072
12.8232	12.6793	0.323883	0.27705
12.8237	12.6798	0.321825	0.276386
12.8242	12.6803	0.323184	0.274998
12.8246	12.6808	0.323203	0.271226
12.8251	12.6812	0.322954	0.268427
12.8256	12.6817	0.322518	0.266794
12.8261	12.6822	0.323795	0.266287
12.8265	12.6826	0.322454	0.264166
12.827	12.6831	0.321311	0.259084
12.8275	12.6836	0.320811	0.255638
12.8279	12.684	0.3205	0.253308
12.8284	12.6845	0.320735	0.252147
12.8289	12.685	0.321061	0.250828
12.8294	12.6855	0.322802	0.247637
12.8298	12.686	0.324012	0.242934
12.8303	12.6864	0.322419	0.239807
12.8308	12.6869	0.324114	0.239346
12.8312	12.6874	0.323825	0.235758
12.8317	12.6879	0.322521	0.231064
12.8322	12.6883	0.325715	0.227366
12.8327	12.6888	0.323946	0.225938
12.8331	12.6893	0.323576	0.223554
12.8336	12.6897	0.323268	0.223455
12.8341	12.6902	0.325732	0.224201
12.8346	12.6907	0.322235	0.223347
12.835	12.6912	0.321999	0.225981
12.8355	12.6916	0.325581	0.23107
12.836	12.6921	0.321841	0.234229
12.8364	12.6925	0.32355	0.238161
12.8369	12.693	0.324492	0.242179
12.8374	12.6935	0.324372	0.24824
12.8379	12.6939	0.32247	0.251999
12.8383	12.6944	0.3254	0.258726
12.8388	12.6949	0.325673	0.260387
12.8393	12.6954	0.323198	0.260412
12.8397	12.6959	0.324621	0.263389
12.8402	12.6963	0.324724	0.266122
12.8407	12.6968	0.321962	0.263539
12.8412	12.6973	0.323938	0.261152
12.8416	12.6978	0.32498	0.258717
12.8421	12.6982	0.323979	0.258392
12.8426	12.6987	0.322093	0.254388
12.8431	12.6991	0.322516	0.252562
12.8435	12.6996	0.322613	0.247371
12.844	12.7001	0.323684	0.244273
12.8445	12.7005	0.324391	0.240311
12.8449	12.701	0.325441	0.237299
12.8454	12.7015	0.322439	0.234864
12.8459	12.702	0.323155	0.229827
12.8464	12.7024	0.325083	0.22735
12.8468	12.7029	0.324122	0.22817
12.8473	12.7034	0.322335	0.228221
12.8478	12.7038	0.321558	0.229913
12.8482	12.7043	0.324388	0.232129
12.8487	12.7048	0.324844	0.235437
12.8492	12.7053	0.323751	0.241213
12.8497	12.7058	0.324967	0.253094
12.8501	12.7062	0.325598	0.260477
12.8506	12.7067	0.32239	0.269078
12.8511	12.7072	0.326012	0.280457
12.8516	12.7077	0.327188	0.294097
12.852	12.7082	0.324684	0.304753
12.8525	12.7086	0.32498	0.318951
12.853	12.7091	0.323408	0.330534
12.8534	12.7096	0.326298	0.344312
12.8539	12.71	0.325806	0.357996
12.8544	12.7105	0.326517	0.374399
12.8549	12.711	0.325596	0.386932
12.8553	12.7115	0.324987	0.396593
12.8558	12.7119	0.326894	0.409408
12.8563	12.7124	0.326669	0.422692
12.8567	12.7129	0.325105	0.431961
12.8572	12.7133	0.325477	0.441143
12.8577	12.7138	0.324614	0.445838
12.8582	12.7143	0.325341	0.455804
12.8586	12.7147	0.326426	0.465245
12.8591	12.7152	0.326884	0.474614
12.8596	12.7157	0.324097	0.481695
12.8601	12.7162	0.32354	0.487952
12.8605	12.7167	0.326925	0.498605
12.861	12.7171	0.325694	0.506207
12.8615	12.7176	0.323637	0.510466
12.8619	12.7181	0.323608	0.519126
12.8624	12.7185	0.324374	0.517405
12.8629	12.719	0.324015	0.511089
12.8634	12.7195	0.323821	0.508475
12.8638	12.7199	0.325727	0.509587
12.8643	12.7204	0.325046	0.505323
12.8648	12.7209	0.324283	0.499199
12.8652	12.7214	0.324933	0.506438
12.8657	12.7218	0.323738	0.514156
12.8662	12.7223	0.323166	0.526796
12.8667	12.7227	0.322613	0.551607
12.8671	12.7232	0.32211	0.580336
12.8676	12.7237	0.322956	0.62131
12.8681	12.7241	0.320264	0.675887
12.8686	12.7246	0.319238	0.732014
12.869	12.7251	0.318626	0.778198
12.8695	12.7256	0.31862	0.812902
12.87	12.7261	0.323484	0.853596
12.8704	12.7265	0.322869	0.883545
12.8709	12.727	0.321659	0.901152
12.8714	12.7275	0.322097	0.915686
12.8719	12.728	0.32399	0.927126
12.8723	12.7284	0.322872	0.925014
12.8728	12.7289	0.320446	0.933741
12.8733	12.7294	0.3234	0.944642
12.8737	12.7298	0.322315	0.948502
12.8742	12.7303	0.320911	0.944307
12.8747	12.7308	0.323959	0.95153
12.8752	12.7313	0.324308	0.956941
12.8756	12.7317	0.32191	0.960205
12.8761	12.7322	0.322733	0.962343
12.8766	12.7327	0.325009	0.966869
12.8771	12.7331	0.323306	0.964512
12.8775	12.7336	0.324411	0.970671
12.878	12.7341	0.324935	0.974936
12.8785	12.7346	0.324849	0.972355
12.8789	12.735	0.323252	0.969705
12.8794	12.7355	0.324826	0.973042
12.8799	12.736	0.323484	0.9736
12.8804	12.7365	0.323052	0.974496
12.8808	12.737	0.32466	0.976964
12.8813	12.7374	0.322701	0.974829
12.8818	12.7379	0.323897	0.97664
12.8822	12.7384	0.32346	0.977921
12.8827	12.7389	0.323442	0.982717
12.8832	12.7393	0.323927	0.982375
12.8837	12.7398	0.324308	0.980101
12.8841	12.7403	0.325477	0.985509
12.8846	12.7407	0.323653	0.985547
12.8851	12.7412	0.323678	0.987109
12.8856	12.7417	0.324002	0.986612
12.886	12.7422	0.325649	0.988135
12.8865	12.7426	0.325333	0.984384
12.887	12.7431	0.322613	0.979891
12.8874	12.7435	0.322827	0.986104
12.8879	12.744	0.325271	0.989016
12.8884	12.7445	0.324697	0.984015
12.8889	12.745	0.325693	0.987948
12.8893	12.7455	0.327119	0.991264
12.8898	12.7459	0.325195	0.990707
12.8903	12.7464	0.326772	0.992239
12.8907	12.7469	0.326071	0.993442
12.8912	12.7474	0.330143	0.999203
12.8917	12.7478	0.329223	1.00252
12.8922	12.7483	0.326463	1.00043
12.8926	12.7488	0.325793	0.996155
12.8931	12.7492	0.325429	0.990302
12.8936	12.7497	0.328299	0.996935
12.8941	12.7502	0.325327	0.990693
12.8945	12.7506	0.324345	0.988577
12.895	12.7511	0.324434	0.992413
12.8955	12.7516	0.327443	1.00036
12.8959	12.752	0.324205	0.994052
12.8964	12.7525	0.323968	0.991906
12.8969	12.753	0.326598	1.00024
12.8974	12.7534	0.326488	0.995629
12.8978	12.7539	0.325864	0.992246
12.8983	12.7544	0.328633	1.00052
12.8988	12.7549	0.328205	0.99903
