# 1304     AichiSR QXAFS
# Start     : 8.9544
# End       : 9.0544
# Dir       : Forward
# Points    : 300
# ScanTime  : 1.01549
# Date      : 13.04.23 22:29
# Ring Cur. : 25.6[mA]
12.7557	12.7558	0.407304	1.23496
12.7562	12.7553	0.407097	1.23817
12.7566	12.7548	0.405181	1.23755
12.7571	12.7543	0.405833	1.23306
12.7576	12.7539	0.405534	1.23466
12.7581	12.7534	0.404699	1.2314
12.7585	12.7529	0.405064	1.23944
12.759	12.7525	0.405243	1.23364
12.7595	12.752	0.404885	1.2321
12.7599	12.7515	0.406246	1.23249
12.7604	12.7511	0.404631	1.23349
12.7609	12.7506	0.404675	1.23419
12.7614	12.7501	0.404364	1.23456
12.7618	12.7497	0.403899	1.23184
12.7623	12.7492	0.404068	1.23024
12.7628	12.7487	0.40526	1.23195
12.7632	12.7483	0.405398	1.23445
12.7637	12.7478	0.40384	1.23205
12.7642	12.7473	0.404486	1.22702
12.7647	12.7468	0.403716	1.22669
12.7651	12.7464	0.403898	1.224
12.7656	12.7459	0.40273	1.22822
12.7661	12.7454	0.402367	1.22889
12.7666	12.7449	0.403253	1.22206
12.767	12.7445	0.403717	1.2223
12.7675	12.744	0.404246	1.22448
12.768	12.7435	0.405925	1.22873
12.7684	12.7431	0.404612	1.22842
12.7689	12.7426	0.403696	1.22381
12.7694	12.7421	0.404255	1.22212
12.7699	12.7417	0.403678	1.22293
12.7703	12.7412	0.403808	1.22442
12.7708	12.7407	0.403175	1.22156
12.7713	12.7402	0.402863	1.21808
12.7717	12.7398	0.403681	1.21585
12.7722	12.7393	0.402138	1.21578
12.7727	12.7388	0.403692	1.21472
12.7732	12.7384	0.402008	1.21696
12.7736	12.7379	0.400785	1.21339
12.7741	12.7374	0.4028	1.2132
12.7746	12.7369	0.402959	1.21526
12.7751	12.7365	0.403432	1.21431
12.7755	12.736	0.402999	1.21389
12.776	12.7355	0.402449	1.20924
12.7765	12.735	0.40265	1.20634
12.7769	12.7345	0.40101	1.20243
12.7774	12.734	0.40227	1.20679
12.7779	12.7336	0.40063	1.20408
12.7784	12.7331	0.400927	1.19546
12.7788	12.7326	0.401254	1.19596
12.7793	12.7322	0.400889	1.19652
12.7798	12.7317	0.401193	1.1932
12.7802	12.7312	0.401567	1.19109
12.7807	12.7307	0.400955	1.18706
12.7812	12.7303	0.402357	1.18228
12.7817	12.7298	0.399423	1.17624
12.7821	12.7293	0.400464	1.17614
12.7826	12.7289	0.399485	1.17129
12.7831	12.7284	0.399002	1.16052
12.7836	12.7279	0.399744	1.15231
12.784	12.7275	0.399068	1.14136
12.7845	12.727	0.398606	1.13103
12.785	12.7265	0.397574	1.11632
12.7854	12.726	0.396808	1.09189
12.7859	12.7256	0.395872	1.05989
12.7864	12.7251	0.394143	1.01831
12.7869	12.7246	0.394421	0.97868
12.7873	12.7241	0.392441	0.920823
12.7878	12.7237	0.394252	0.85669
12.7883	12.7232	0.398515	0.795981
12.7887	12.7227	0.397769	0.740847
12.7892	12.7223	0.398123	0.695056
12.7897	12.7218	0.397969	0.660577
12.7902	12.7213	0.398738	0.637274
12.7906	12.7209	0.398772	0.621824
12.7911	12.7204	0.398467	0.615594
12.7916	12.7199	0.398457	0.618094
12.7921	12.7194	0.396791	0.620086
12.7925	12.719	0.39646	0.621805
12.793	12.7185	0.399234	0.627778
12.7935	12.7181	0.398239	0.630574
12.7939	12.7176	0.396934	0.633362
12.7944	12.7171	0.39698	0.630067
12.7949	12.7166	0.397962	0.622071
12.7954	12.7162	0.398536	0.612392
12.7958	12.7157	0.397688	0.601828
12.7963	12.7152	0.396457	0.590401
12.7968	12.7147	0.396111	0.581348
12.7972	12.7142	0.397027	0.566782
12.7977	12.7138	0.39809	0.558241
12.7982	12.7133	0.396445	0.548994
12.7987	12.7128	0.397002	0.53897
12.7991	12.7124	0.395782	0.526753
12.7996	12.7119	0.396025	0.515624
12.8001	12.7114	0.397812	0.50131
12.8006	12.7109	0.396952	0.489813
12.801	12.7105	0.3957	0.477168
12.8015	12.71	0.397967	0.458324
12.802	12.7095	0.396852	0.441909
12.8024	12.7091	0.396313	0.426885
12.8029	12.7086	0.397168	0.409481
12.8034	12.7081	0.396194	0.392396
12.8039	12.7077	0.396695	0.375371
12.8043	12.7072	0.395625	0.35852
12.8048	12.7067	0.398508	0.345546
12.8053	12.7062	0.396362	0.331685
12.8057	12.7057	0.396379	0.321392
12.8062	12.7053	0.397131	0.309442
12.8067	12.7048	0.396148	0.29918
12.8072	12.7043	0.396829	0.291363
12.8076	12.7038	0.397021	0.285969
12.8081	12.7033	0.396015	0.282649
12.8086	12.7029	0.395823	0.27937
12.8091	12.7024	0.395585	0.276755
12.8095	12.7019	0.397554	0.278097
12.81	12.7015	0.395081	0.280274
12.8105	12.701	0.396364	0.284185
12.8109	12.7005	0.396662	0.288131
12.8114	12.7	0.394526	0.290219
12.8119	12.6996	0.395628	0.297063
12.8124	12.6991	0.396403	0.30073
12.8128	12.6987	0.393079	0.307058
12.8133	12.6982	0.394858	0.30985
12.8138	12.6977	0.393586	0.312874
12.8142	12.6973	0.395448	0.314382
12.8147	12.6968	0.393997	0.317865
12.8152	12.6963	0.393551	0.321157
12.8157	12.6958	0.393984	0.320599
12.8161	12.6953	0.392711	0.317004
12.8166	12.6949	0.394421	0.316726
12.8171	12.6944	0.394856	0.316133
12.8176	12.6939	0.392997	0.312396
12.818	12.6934	0.393013	0.307684
12.8185	12.693	0.393665	0.301036
12.819	12.6925	0.392233	0.295811
12.8194	12.6921	0.392512	0.290632
12.8199	12.6916	0.392337	0.286056
12.8204	12.6911	0.392425	0.28076
12.8209	12.6906	0.391601	0.273825
12.8213	12.6902	0.393921	0.272004
12.8218	12.6897	0.392314	0.270941
12.8223	12.6892	0.391365	0.269667
12.8227	12.6888	0.391882	0.269203
12.8232	12.6883	0.390358	0.270349
12.8237	12.6879	0.393664	0.272654
12.8242	12.6874	0.390797	0.277666
12.8246	12.6869	0.391418	0.282325
12.8251	12.6864	0.388938	0.285278
12.8256	12.6859	0.388674	0.288655
12.8261	12.6855	0.391346	0.292662
12.8265	12.685	0.38963	0.297488
12.827	12.6845	0.388544	0.300282
12.8275	12.684	0.387889	0.303416
12.8279	12.6835	0.387507	0.305256
12.8284	12.6831	0.389966	0.308711
12.8289	12.6826	0.389316	0.313062
12.8294	12.6821	0.389727	0.315869
12.8298	12.6817	0.391135	0.319465
12.8303	12.6812	0.389464	0.321821
12.8308	12.6807	0.395374	0.328139
12.8312	12.6802	0.393529	0.329824
12.8317	12.6798	0.389785	0.330829
12.8322	12.6793	0.390148	0.33185
12.8327	12.6788	0.389764	0.33308
12.8331	12.6784	0.39206	0.335744
12.8336	12.6779	0.389548	0.336431
12.8341	12.6774	0.389961	0.337813
12.8346	12.6769	0.389877	0.335974
12.835	12.6765	0.388552	0.335502
12.8355	12.676	0.390628	0.335368
12.836	12.6755	0.390581	0.336532
12.8364	12.675	0.389492	0.33535
12.8369	12.6745	0.389117	0.333595
12.8374	12.6741	0.389347	0.332456
12.8379	12.6736	0.390917	0.331983
12.8383	12.6731	0.389246	0.330179
12.8388	12.6727	0.391098	0.331577
12.8393	12.6722	0.391377	0.32943
12.8397	12.6717	0.389486	0.325178
12.8402	12.6713	0.391386	0.325217
12.8407	12.6708	0.392702	0.324628
12.8412	12.6703	0.388699	0.322436
12.8416	12.6698	0.390318	0.318737
12.8421	12.6694	0.390164	0.314928
12.8426	12.6689	0.392246	0.314474
12.8431	12.6685	0.391724	0.312818
12.8435	12.668	0.390675	0.311768
12.844	12.6675	0.391593	0.307473
12.8445	12.667	0.390973	0.304515
12.8449	12.6666	0.393512	0.302596
12.8454	12.6661	0.393548	0.301663
12.8459	12.6656	0.390357	0.297414
12.8464	12.6651	0.392323	0.294898
12.8468	12.6647	0.391228	0.292797
12.8473	12.6642	0.392166	0.29156
12.8478	12.6637	0.391576	0.290241
12.8482	12.6632	0.391484	0.289093
12.8487	12.6628	0.390645	0.286313
12.8492	12.6623	0.390988	0.282468
12.8497	12.6619	0.39297	0.281523
12.8501	12.6614	0.39398	0.282198
12.8506	12.6609	0.390295	0.278896
12.8511	12.6604	0.391415	0.275511
12.8516	12.66	0.390525	0.273508
12.852	12.6595	0.390817	0.272402
12.8525	12.659	0.392036	0.272416
12.853	12.6586	0.389817	0.271911
12.8534	12.6581	0.390304	0.270186
12.8539	12.6576	0.390605	0.267348
12.8544	12.6571	0.3923	0.269346
12.8549	12.6567	0.390601	0.270652
12.8553	12.6562	0.390623	0.27124
12.8558	12.6557	0.392434	0.269969
12.8563	12.6552	0.390862	0.271172
12.8567	12.6548	0.392723	0.272864
12.8572	12.6543	0.393071	0.275892
12.8577	12.6538	0.392216	0.278271
12.8582	12.6533	0.392808	0.27837
12.8586	12.6529	0.392669	0.279238
12.8591	12.6524	0.393296	0.282456
12.8596	12.6519	0.394061	0.286662
12.8601	12.6515	0.392413	0.289026
12.8605	12.651	0.392428	0.289835
12.861	12.6505	0.393056	0.294245
12.8615	12.65	0.392756	0.295016
12.8619	12.6496	0.393969	0.298093
12.8624	12.6491	0.390394	0.301281
12.8629	12.6486	0.39194	0.301983
12.8634	12.6482	0.391701	0.303086
12.8638	12.6477	0.39263	0.30673
12.8643	12.6472	0.392107	0.309394
12.8648	12.6467	0.38963	0.30861
12.8652	12.6462	0.389317	0.308224
12.8657	12.6458	0.389471	0.309613
12.8662	12.6453	0.38971	0.311639
12.8667	12.6448	0.389473	0.313836
12.8671	12.6443	0.388302	0.315413
12.8676	12.6439	0.389245	0.315298
12.8681	12.6434	0.390947	0.315342
12.8686	12.6429	0.392901	0.316962
12.869	12.6425	0.393518	0.321129
12.8695	12.642	0.392225	0.31986
12.87	12.6415	0.392005	0.319466
12.8704	12.6411	0.394178	0.320544
12.8709	12.6406	0.394206	0.320009
12.8714	12.6401	0.394529	0.320984
12.8719	12.6396	0.392177	0.319893
12.8723	12.6392	0.391847	0.318595
12.8728	12.6387	0.390726	0.317215
12.8733	12.6383	0.392935	0.31801
12.8737	12.6378	0.394	0.31934
12.8742	12.6373	0.391468	0.31659
12.8747	12.6368	0.391897	0.315281
12.8752	12.6364	0.393761	0.313742
12.8756	12.6359	0.393343	0.314746
12.8761	12.6354	0.393274	0.316117
12.8766	12.6349	0.391834	0.314487
12.8771	12.6345	0.392915	0.312766
12.8775	12.634	0.393101	0.311899
12.878	12.6335	0.390655	0.313005
12.8785	12.633	0.393775	0.313733
12.8789	12.6326	0.390826	0.312613
12.8794	12.6321	0.39228	0.311032
12.8799	12.6317	0.393298	0.312362
12.8804	12.6312	0.392776	0.311683
12.8808	12.6307	0.393186	0.313128
12.8813	12.6302	0.390453	0.31284
12.8818	12.6297	0.389988	0.312106
12.8822	12.6293	0.39208	0.312263
12.8827	12.6288	0.392532	0.314143
12.8832	12.6284	0.393279	0.315192
12.8837	12.6279	0.391225	0.315325
12.8841	12.6274	0.390552	0.312204
12.8846	12.6269	0.393309	0.312127
12.8851	12.6264	0.391966	0.313031
12.8856	12.626	0.392107	0.314526
12.886	12.6255	0.391632	0.312944
12.8865	12.625	0.391207	0.309339
12.887	12.6245	0.390381	0.308187
12.8874	12.624	0.392983	0.307852
12.8879	12.6236	0.393737	0.310902
12.8884	12.6231	0.389132	0.307672
12.8889	12.6226	0.390367	0.305539
12.8893	12.6222	0.392311	0.306596
12.8898	12.6217	0.392495	0.305384
12.8903	12.6212	0.390457	0.305783
12.8907	12.6207	0.390892	0.30638
12.8912	12.6203	0.390016	0.303747
12.8917	12.6198	0.390207	0.301692
12.8922	12.6193	0.390734	0.303584
12.8926	12.6189	0.391924	0.304784
12.8931	12.6184	0.389364	0.30447
12.8936	12.6179	0.390058	0.303301
12.8941	12.6175	0.391067	0.302219
12.8945	12.617	0.390134	0.302689
12.895	12.6165	0.391225	0.303864
12.8955	12.616	0.39078	0.304621
12.8959	12.6155	0.389065	0.30136
12.8964	12.6151	0.389092	0.301116
12.8969	12.6146	0.389148	0.302106
12.8974	12.6141	0.38881	0.303021
12.8978	12.6136	0.388136	0.300685
12.8983	12.6132	0.388005	0.29987
12.8988	12.6127	0.390636	0.300408
