# 1304     AichiSR QXAFS
# Start     : 8.9544
# End       : 9.0544
# Dir       : Forward
# Points    : 300
# ScanTime  : 1.01549
# Date      : 13.04.23 22:28
# Ring Cur. : 25.5[mA]
12.7557	12.7558	0.403144	1.22331
12.7562	12.7553	0.403321	1.22866
12.7566	12.7548	0.400755	1.22698
12.7571	12.7543	0.402406	1.22314
12.7576	12.7538	0.402883	1.2228
12.7581	12.7534	0.401546	1.22624
12.7585	12.7529	0.401744	1.22678
12.759	12.7525	0.401113	1.22352
12.7595	12.752	0.401357	1.22237
12.7599	12.7515	0.401521	1.22416
12.7604	12.7511	0.402853	1.22516
12.7609	12.7506	0.402299	1.22582
12.7614	12.7501	0.400322	1.22557
12.7618	12.7496	0.400386	1.22273
12.7623	12.7492	0.401605	1.21977
12.7628	12.7487	0.4011	1.22164
12.7632	12.7483	0.401524	1.22199
12.7637	12.7478	0.400852	1.2229
12.7642	12.7473	0.399901	1.2175
12.7647	12.7468	0.400482	1.21931
12.7651	12.7464	0.40136	1.21879
12.7656	12.7459	0.399953	1.21585
12.7661	12.7454	0.399492	1.21953
12.7666	12.7449	0.400181	1.21362
12.767	12.7444	0.402706	1.21664
12.7675	12.744	0.401258	1.21736
12.768	12.7435	0.40176	1.21889
12.7684	12.743	0.400016	1.2163
12.7689	12.7426	0.399266	1.2112
12.7694	12.7421	0.401771	1.21565
12.7699	12.7416	0.400902	1.21579
12.7703	12.7412	0.401129	1.21501
12.7708	12.7407	0.399202	1.21376
12.7713	12.7402	0.399047	1.21169
12.7717	12.7397	0.401925	1.20867
12.7722	12.7393	0.399919	1.21289
12.7727	12.7388	0.400612	1.21318
12.7732	12.7383	0.399401	1.21028
12.7736	12.7379	0.398808	1.20785
12.7741	12.7374	0.400214	1.20497
12.7746	12.7369	0.39972	1.20648
12.7751	12.7364	0.399257	1.2073
12.7755	12.736	0.398914	1.20332
12.776	12.7355	0.398847	1.20081
12.7765	12.735	0.399318	1.19882
12.7769	12.7345	0.400473	1.20017
12.7774	12.734	0.399795	1.19836
12.7779	12.7336	0.398765	1.19628
12.7784	12.7331	0.397101	1.19046
12.7788	12.7326	0.399288	1.18921
12.7793	12.7322	0.397937	1.18696
12.7798	12.7317	0.399848	1.1869
12.7802	12.7312	0.398247	1.18474
12.7807	12.7307	0.398002	1.17684
12.7812	12.7302	0.398183	1.17379
12.7817	12.7298	0.399108	1.17364
12.7821	12.7293	0.397829	1.16992
12.7826	12.7289	0.398697	1.16243
12.7831	12.7284	0.396124	1.15146
12.7836	12.7279	0.397811	1.14676
12.784	12.7274	0.396319	1.13802
12.7845	12.727	0.395966	1.12744
12.785	12.7265	0.393943	1.1086
12.7854	12.726	0.392767	1.08495
12.7859	12.7255	0.394659	1.05234
12.7864	12.7251	0.392591	1.01668
12.7869	12.7246	0.392241	0.971606
12.7873	12.7241	0.390115	0.916256
12.7878	12.7236	0.392098	0.848847
12.7883	12.7232	0.394619	0.789933
12.7887	12.7227	0.396221	0.735401
12.7892	12.7222	0.397368	0.688898
12.7897	12.7218	0.395218	0.652859
12.7902	12.7213	0.395184	0.63047
12.7906	12.7208	0.395704	0.618091
12.7911	12.7204	0.396573	0.615031
12.7916	12.7199	0.39471	0.615506
12.7921	12.7194	0.396422	0.615256
12.7925	12.719	0.394084	0.618905
12.793	12.7185	0.396167	0.624301
12.7935	12.718	0.395946	0.628083
12.7939	12.7176	0.396167	0.6293
12.7944	12.7171	0.394287	0.623801
12.7949	12.7166	0.394734	0.6163
12.7954	12.7161	0.395965	0.605802
12.7958	12.7157	0.395994	0.598881
12.7963	12.7152	0.394535	0.586616
12.7968	12.7147	0.393804	0.577669
12.7972	12.7142	0.393797	0.563211
12.7977	12.7137	0.395473	0.554172
12.7982	12.7133	0.395286	0.546112
12.7987	12.7128	0.394968	0.53561
12.7991	12.7123	0.39407	0.523729
12.7996	12.7119	0.394833	0.511063
12.8001	12.7114	0.396028	0.499604
12.8006	12.7109	0.395532	0.485279
12.801	12.7104	0.395675	0.472418
12.8015	12.71	0.395346	0.455731
12.802	12.7095	0.393152	0.437991
12.8024	12.7091	0.395696	0.421912
12.8029	12.7086	0.393789	0.40713
12.8034	12.7081	0.393313	0.389947
12.8039	12.7076	0.393894	0.37257
12.8043	12.7072	0.394686	0.358139
12.8048	12.7067	0.396303	0.342442
12.8053	12.7062	0.396083	0.331285
12.8057	12.7057	0.39393	0.319705
12.8062	12.7052	0.395042	0.308582
12.8067	12.7048	0.393127	0.295644
12.8072	12.7043	0.395249	0.289821
12.8076	12.7038	0.395286	0.285739
12.8081	12.7033	0.393498	0.280528
12.8086	12.7029	0.392552	0.27791
12.8091	12.7024	0.393659	0.275092
12.8095	12.7019	0.39275	0.277357
12.81	12.7015	0.393757	0.27943
12.8105	12.701	0.394274	0.283546
12.8109	12.7005	0.394079	0.28651
12.8114	12.7	0.392746	0.29014
12.8119	12.6996	0.394063	0.294054
12.8124	12.6991	0.394712	0.300383
12.8128	12.6987	0.392483	0.304977
12.8133	12.6982	0.392921	0.30785
12.8138	12.6977	0.392719	0.308902
12.8142	12.6972	0.39384	0.315076
12.8147	12.6968	0.391902	0.317657
12.8152	12.6963	0.391485	0.31809
12.8157	12.6958	0.39106	0.317765
12.8161	12.6953	0.391817	0.316567
12.8166	12.6949	0.3922	0.317052
12.8171	12.6944	0.391726	0.315818
12.8176	12.6939	0.391436	0.311843
12.818	12.6934	0.391386	0.305596
12.8185	12.693	0.391377	0.298523
12.819	12.6925	0.391441	0.29427
12.8194	12.692	0.392013	0.289949
12.8199	12.6916	0.391114	0.285014
12.8204	12.6911	0.392458	0.278651
12.8209	12.6906	0.391347	0.271645
12.8213	12.6902	0.392476	0.271316
12.8218	12.6897	0.392967	0.26971
12.8223	12.6892	0.389832	0.268855
12.8227	12.6888	0.389438	0.269231
12.8232	12.6883	0.388956	0.268772
12.8237	12.6878	0.391985	0.273171
12.8242	12.6874	0.38907	0.277093
12.8246	12.6869	0.389459	0.280543
12.8251	12.6864	0.389441	0.284373
12.8256	12.6859	0.387351	0.286469
12.8261	12.6854	0.389041	0.291457
12.8265	12.685	0.390023	0.297245
12.827	12.6845	0.38745	0.299579
12.8275	12.684	0.388297	0.303862
12.8279	12.6835	0.386456	0.303375
12.8284	12.6831	0.387603	0.30733
12.8289	12.6826	0.386393	0.310683
12.8294	12.6821	0.388556	0.316072
12.8298	12.6817	0.387914	0.316793
12.8303	12.6812	0.386994	0.318735
12.8308	12.6807	0.3884	0.323054
12.8312	12.6802	0.388753	0.326735
12.8317	12.6798	0.386681	0.32882
12.8322	12.6793	0.389149	0.329248
12.8327	12.6788	0.389825	0.331517
12.8331	12.6784	0.38953	0.333114
12.8336	12.6779	0.38881	0.335573
12.8341	12.6774	0.389043	0.336824
12.8346	12.6769	0.388348	0.334405
12.835	12.6765	0.38645	0.334273
12.8355	12.676	0.388559	0.33417
12.836	12.6755	0.388683	0.334977
12.8364	12.675	0.386188	0.33369
12.8369	12.6745	0.385671	0.331776
12.8374	12.6741	0.387586	0.330467
12.8379	12.6736	0.389724	0.329551
12.8383	12.6731	0.389873	0.330086
12.8388	12.6726	0.387577	0.329526
12.8393	12.6722	0.387833	0.32672
12.8397	12.6717	0.385811	0.323262
12.8402	12.6712	0.38765	0.321682
12.8407	12.6708	0.387904	0.32154
12.8412	12.6703	0.387758	0.318965
12.8416	12.6698	0.388372	0.317194
12.8421	12.6694	0.386705	0.313097
12.8426	12.6689	0.391732	0.314437
12.8431	12.6684	0.389533	0.311761
12.8435	12.668	0.387275	0.306969
12.844	12.6675	0.386844	0.302019
12.8445	12.667	0.386077	0.300289
12.8449	12.6665	0.386627	0.297293
12.8454	12.6661	0.387423	0.297049
12.8459	12.6656	0.386323	0.296275
12.8464	12.6651	0.385692	0.292395
12.8468	12.6646	0.387761	0.289336
12.8473	12.6642	0.385776	0.287606
12.8478	12.6637	0.385464	0.285914
12.8482	12.6632	0.385193	0.283751
12.8487	12.6628	0.38619	0.281338
12.8492	12.6623	0.385973	0.277916
12.8497	12.6618	0.385323	0.276233
12.8501	12.6614	0.386868	0.276501
12.8506	12.6609	0.384089	0.274299
12.8511	12.6604	0.38619	0.271174
12.8516	12.6599	0.386369	0.269267
12.852	12.6595	0.384937	0.268185
12.8525	12.659	0.386378	0.268533
12.853	12.6586	0.385382	0.268291
12.8534	12.6581	0.385026	0.265365
12.8539	12.6576	0.384667	0.26395
12.8544	12.6571	0.386723	0.265444
12.8549	12.6567	0.386804	0.266402
12.8553	12.6562	0.386705	0.266369
12.8558	12.6557	0.384905	0.266463
12.8563	12.6552	0.3862	0.266859
12.8567	12.6547	0.386751	0.268096
12.8572	12.6543	0.386244	0.271447
12.8577	12.6538	0.385857	0.274026
12.8582	12.6533	0.386531	0.275424
12.8586	12.6529	0.388006	0.277632
12.8591	12.6524	0.387892	0.278473
12.8596	12.6519	0.388613	0.283348
12.8601	12.6515	0.388268	0.28551
12.8605	12.651	0.387893	0.287406
12.861	12.6505	0.388105	0.288384
12.8615	12.65	0.390063	0.291397
12.8619	12.6495	0.387227	0.294337
12.8624	12.6491	0.38631	0.297816
12.8629	12.6486	0.386269	0.297827
12.8634	12.6481	0.386533	0.299016
12.8638	12.6477	0.388673	0.302963
12.8643	12.6472	0.387352	0.305696
12.8648	12.6467	0.384626	0.305993
12.8652	12.6462	0.383915	0.305099
12.8657	12.6457	0.385341	0.306264
12.8662	12.6453	0.385205	0.307722
12.8667	12.6448	0.384958	0.308946
12.8671	12.6443	0.38337	0.311401
12.8676	12.6438	0.386174	0.312065
12.8681	12.6434	0.384992	0.312488
12.8686	12.6429	0.386595	0.313092
12.869	12.6424	0.38816	0.315978
12.8695	12.642	0.387916	0.316289
12.87	12.6415	0.387699	0.314697
12.8704	12.641	0.388763	0.315891
12.8709	12.6406	0.387998	0.31709
12.8714	12.6401	0.387868	0.316233
12.8719	12.6396	0.387699	0.317519
12.8723	12.6392	0.387107	0.314037
12.8728	12.6387	0.388755	0.314111
12.8733	12.6382	0.388257	0.314602
12.8737	12.6378	0.38794	0.315734
12.8742	12.6373	0.387329	0.312644
12.8747	12.6368	0.387828	0.312773
12.8752	12.6363	0.386961	0.311161
12.8756	12.6359	0.388323	0.311486
12.8761	12.6354	0.387687	0.31196
12.8766	12.6349	0.386788	0.31141
12.8771	12.6344	0.387561	0.30908
12.8775	12.634	0.38822	0.309207
12.878	12.6335	0.387869	0.308364
12.8785	12.633	0.388612	0.309833
12.8789	12.6326	0.387395	0.309211
12.8794	12.6321	0.387341	0.30766
12.8799	12.6316	0.387954	0.308027
12.8804	12.6312	0.387806	0.308074
12.8808	12.6307	0.388168	0.311101
12.8813	12.6302	0.388312	0.310588
12.8818	12.6297	0.387649	0.310573
12.8822	12.6293	0.38977	0.309432
12.8827	12.6288	0.38921	0.311197
12.8832	12.6283	0.387445	0.312084
12.8837	12.6279	0.389169	0.311463
12.8841	12.6274	0.387621	0.309943
12.8846	12.6269	0.388287	0.30963
12.8851	12.6264	0.387851	0.309505
12.8856	12.6259	0.387305	0.310577
12.886	12.6255	0.387698	0.308793
12.8865	12.625	0.387524	0.306868
12.887	12.6245	0.388412	0.305283
12.8874	12.624	0.388452	0.305323
12.8879	12.6236	0.38782	0.307574
12.8884	12.6231	0.387197	0.306257
12.8889	12.6226	0.387973	0.3031
12.8893	12.6222	0.389127	0.302812
12.8898	12.6217	0.387974	0.303447
12.8903	12.6212	0.388847	0.303291
12.8907	12.6207	0.387943	0.30283
12.8912	12.6202	0.387249	0.301417
12.8917	12.6198	0.386759	0.300889
12.8922	12.6193	0.38664	0.301841
12.8926	12.6189	0.388693	0.302006
12.8931	12.6184	0.385012	0.30152
12.8936	12.6179	0.38645	0.300085
12.8941	12.6174	0.387537	0.300234
12.8945	12.617	0.386431	0.300225
12.895	12.6165	0.386396	0.302269
12.8955	12.616	0.385706	0.301551
12.8959	12.6155	0.386845	0.298775
12.8964	12.615	0.387926	0.300015
12.8969	12.6146	0.387585	0.299436
12.8974	12.6141	0.387166	0.301271
12.8978	12.6136	0.385624	0.299181
12.8983	12.6132	0.386231	0.296249
12.8988	12.6127	0.388319	0.29635
