# 1304     AichiSR QXAFS
# Start     : 8.9544
# End       : 9.0544
# Dir       : Backward
# Points    : 300
# ScanTime  : 1.01549
# Date      : 13.04.23 22:28
# Ring Cur. : 25.4[mA]
12.7557	12.6118	0.295147	0.224968
12.7562	12.6123	0.297664	0.225698
12.7566	12.6127	0.296201	0.227566
12.7571	12.6132	0.296048	0.229744
12.7576	12.6136	0.29549	0.228513
12.7581	12.6141	0.2946	0.227879
12.7585	12.6146	0.299479	0.232103
12.759	12.6151	0.295911	0.232563
12.7595	12.6155	0.294347	0.229147
12.7599	12.616	0.295668	0.231224
12.7604	12.6165	0.297894	0.230453
12.7609	12.617	0.296973	0.230405
12.7614	12.6174	0.29675	0.231995
12.7618	12.6179	0.297316	0.232902
12.7623	12.6184	0.29492	0.230691
12.7628	12.6189	0.296811	0.23084
12.7632	12.6193	0.299829	0.233054
12.7637	12.6198	0.29843	0.233773
12.7642	12.6203	0.295115	0.231662
12.7647	12.6207	0.297845	0.232219
12.7651	12.6212	0.298053	0.230081
12.7656	12.6217	0.297767	0.23205
12.7661	12.6222	0.297445	0.234803
12.7666	12.6226	0.295083	0.233104
12.767	12.6231	0.295126	0.232311
12.7675	12.6236	0.296581	0.232164
12.768	12.624	0.299806	0.234623
12.7684	12.6245	0.296962	0.236279
12.7689	12.625	0.293923	0.234612
12.7694	12.6255	0.298106	0.236923
12.7699	12.626	0.297735	0.235386
12.7703	12.6264	0.298497	0.237698
12.7708	12.6269	0.297415	0.238934
12.7713	12.6274	0.297226	0.240255
12.7717	12.6279	0.293994	0.237827
12.7722	12.6283	0.296058	0.237873
12.7727	12.6288	0.299996	0.240001
12.7732	12.6293	0.297282	0.240417
12.7736	12.6297	0.295853	0.239124
12.7741	12.6302	0.296272	0.238085
12.7746	12.6307	0.298327	0.237359
12.7751	12.6312	0.299659	0.23869
12.7755	12.6316	0.299513	0.240412
12.776	12.6321	0.29607	0.238533
12.7765	12.6326	0.296683	0.238527
12.7769	12.633	0.299763	0.238275
12.7774	12.6335	0.304003	0.240866
12.7779	12.634	0.30076	0.240535
12.7784	12.6344	0.297928	0.239743
12.7788	12.6349	0.297689	0.238813
12.7793	12.6354	0.298676	0.237817
12.7798	12.6359	0.300275	0.241101
12.7802	12.6363	0.300777	0.242346
12.7807	12.6368	0.298187	0.240657
12.7812	12.6373	0.296599	0.240387
12.7817	12.6378	0.299765	0.240808
12.7821	12.6382	0.302719	0.243872
12.7826	12.6387	0.301955	0.244677
12.7831	12.6392	0.298089	0.244443
12.7836	12.6396	0.299578	0.243522
12.784	12.6401	0.300456	0.244704
12.7845	12.6406	0.300693	0.245332
12.785	12.641	0.302284	0.2478
12.7854	12.6415	0.299655	0.246878
12.7859	12.642	0.297744	0.244473
12.7864	12.6424	0.300642	0.245849
12.7869	12.6429	0.300667	0.246422
12.7873	12.6434	0.301027	0.246994
12.7878	12.6438	0.298353	0.244119
12.7883	12.6443	0.299441	0.243242
12.7887	12.6448	0.29878	0.240772
12.7892	12.6453	0.299363	0.241004
12.7897	12.6457	0.301387	0.244836
12.7902	12.6462	0.299743	0.242912
12.7906	12.6467	0.296905	0.238378
12.7911	12.6472	0.302594	0.238729
12.7916	12.6477	0.304699	0.24119
12.7921	12.6481	0.302936	0.240094
12.7925	12.6486	0.300996	0.236985
12.793	12.6491	0.303432	0.235511
12.7935	12.6495	0.302679	0.232189
12.7939	12.65	0.304443	0.231681
12.7944	12.6505	0.307112	0.232523
12.7949	12.651	0.305376	0.230496
12.7954	12.6515	0.301819	0.223497
12.7958	12.6519	0.304622	0.224357
12.7963	12.6524	0.306565	0.225095
12.7968	12.6529	0.307931	0.224506
12.7972	12.6533	0.3061	0.221795
12.7977	12.6538	0.30466	0.218183
12.7982	12.6543	0.306918	0.216348
12.7987	12.6547	0.309136	0.216737
12.7991	12.6552	0.308212	0.216509
12.7996	12.6557	0.306298	0.214973
12.8001	12.6562	0.30533	0.212254
12.8006	12.6567	0.307276	0.212092
12.801	12.6571	0.308369	0.213003
12.8015	12.6576	0.3084	0.215153
12.802	12.6581	0.306811	0.212801
12.8024	12.6586	0.307362	0.2102
12.8029	12.659	0.308877	0.212964
12.8034	12.6595	0.310437	0.213723
12.8039	12.6599	0.310388	0.216945
12.8043	12.6604	0.308372	0.218872
12.8048	12.6609	0.306906	0.216635
12.8053	12.6614	0.307545	0.217093
12.8057	12.6619	0.311156	0.221722
12.8062	12.6623	0.311632	0.224661
12.8067	12.6628	0.307478	0.224343
12.8072	12.6632	0.308744	0.22387
12.8076	12.6637	0.310854	0.226311
12.8081	12.6642	0.310945	0.227853
12.8086	12.6646	0.312021	0.232351
12.8091	12.6651	0.312568	0.234498
12.8095	12.6656	0.308199	0.232843
12.81	12.6661	0.310844	0.235123
12.8105	12.6666	0.314516	0.240669
12.8109	12.667	0.312201	0.242382
12.8114	12.6675	0.310186	0.24338
12.8119	12.668	0.313765	0.244954
12.8124	12.6685	0.312447	0.245544
12.8128	12.6689	0.311043	0.247772
12.8133	12.6694	0.313518	0.253439
12.8138	12.6698	0.311546	0.254874
12.8142	12.6703	0.309631	0.253025
12.8147	12.6708	0.311697	0.254657
12.8152	12.6712	0.314868	0.2592
12.8157	12.6717	0.312153	0.259671
12.8161	12.6722	0.311502	0.262263
12.8166	12.6726	0.313438	0.261995
12.8171	12.6731	0.312311	0.262906
12.8176	12.6736	0.313056	0.26523
12.818	12.6741	0.316159	0.26944
12.8185	12.6745	0.313092	0.268636
12.819	12.675	0.311281	0.267682
12.8194	12.6755	0.314771	0.268202
12.8199	12.676	0.314778	0.269939
12.8204	12.6765	0.314456	0.271718
12.8209	12.6769	0.314038	0.272616
12.8213	12.6774	0.313621	0.271466
12.8218	12.6779	0.313396	0.269965
12.8223	12.6784	0.314538	0.271163
12.8227	12.6788	0.316772	0.273259
12.8232	12.6793	0.316693	0.272167
12.8237	12.6798	0.313461	0.269526
12.8242	12.6802	0.3148	0.266883
12.8246	12.6807	0.317685	0.267051
12.8251	12.6812	0.31763	0.264542
12.8256	12.6817	0.313947	0.262906
12.8261	12.6821	0.313681	0.258157
12.8265	12.6826	0.315263	0.25605
12.827	12.6831	0.314171	0.254912
12.8275	12.6835	0.315532	0.253257
12.8279	12.684	0.314399	0.250974
12.8284	12.6845	0.312585	0.24594
12.8289	12.685	0.314578	0.244231
12.8294	12.6854	0.315629	0.242657
12.8298	12.6859	0.316196	0.241256
12.8303	12.6864	0.313787	0.237485
12.8308	12.6869	0.31544	0.231755
12.8312	12.6874	0.317986	0.228944
12.8317	12.6878	0.316109	0.225565
12.8322	12.6883	0.319421	0.225814
12.8327	12.6888	0.317686	0.223217
12.8331	12.6892	0.317123	0.218327
12.8336	12.6897	0.317665	0.21806
12.8341	12.6902	0.318582	0.219436
12.8346	12.6906	0.316388	0.220206
12.835	12.6911	0.316497	0.222487
12.8355	12.6916	0.316954	0.223431
12.836	12.6921	0.317456	0.227973
12.8364	12.6925	0.315939	0.231913
12.8369	12.693	0.31849	0.239684
12.8374	12.6934	0.316492	0.242964
12.8379	12.6939	0.315962	0.24436
12.8383	12.6944	0.318748	0.250055
12.8388	12.6949	0.318839	0.254465
12.8393	12.6953	0.318387	0.256938
12.8397	12.6958	0.317182	0.258242
12.8402	12.6963	0.316955	0.256913
12.8407	12.6968	0.316052	0.256318
12.8412	12.6972	0.316653	0.256714
12.8416	12.6977	0.317502	0.255955
12.8421	12.6982	0.315922	0.253652
12.8426	12.6986	0.314956	0.248414
12.8431	12.6991	0.317978	0.247281
12.8435	12.6996	0.316851	0.243932
12.844	12.7	0.315696	0.241724
12.8445	12.7005	0.316908	0.237298
12.8449	12.701	0.315632	0.231972
12.8454	12.7015	0.317885	0.22853
12.8459	12.7019	0.316133	0.225736
12.8464	12.7024	0.317269	0.226735
12.8468	12.7029	0.317029	0.224447
12.8473	12.7033	0.316637	0.222108
12.8478	12.7038	0.317201	0.222503
12.8482	12.7043	0.317638	0.228065
12.8487	12.7048	0.320203	0.234285
12.8492	12.7052	0.316918	0.237905
12.8497	12.7057	0.315445	0.242323
12.8501	12.7062	0.319019	0.252581
12.8506	12.7067	0.319449	0.262846
12.8511	12.7072	0.318984	0.274968
12.8516	12.7077	0.320158	0.285957
12.852	12.7081	0.319263	0.293625
12.8525	12.7086	0.319012	0.307474
12.853	12.7091	0.319625	0.323179
12.8534	12.7095	0.321621	0.338728
12.8539	12.71	0.317611	0.348751
12.8544	12.7105	0.318908	0.361098
12.8549	12.7109	0.320501	0.375352
12.8553	12.7114	0.31833	0.387212
12.8558	12.7119	0.319866	0.401012
12.8563	12.7124	0.319626	0.412529
12.8567	12.7128	0.316767	0.41574
12.8572	12.7133	0.319607	0.427911
12.8577	12.7138	0.321124	0.442071
12.8582	12.7142	0.318294	0.448324
12.8586	12.7147	0.317849	0.454516
12.8591	12.7152	0.31834	0.460422
12.8596	12.7157	0.320084	0.468827
12.8601	12.7161	0.318069	0.478444
12.8605	12.7166	0.319778	0.489288
12.861	12.7171	0.319317	0.498622
12.8615	12.7176	0.31818	0.500649
12.8619	12.7181	0.31895	0.505001
12.8624	12.7185	0.319609	0.510023
12.8629	12.719	0.317357	0.506365
12.8634	12.7194	0.31809	0.503771
12.8638	12.7199	0.317136	0.49557
12.8643	12.7204	0.318095	0.490456
12.8648	12.7208	0.317235	0.491371
12.8652	12.7213	0.318889	0.496677
12.8657	12.7218	0.318813	0.503137
12.8662	12.7223	0.316666	0.510442
12.8667	12.7227	0.317933	0.53479
12.8671	12.7232	0.31625	0.567294
12.8676	12.7236	0.317264	0.611118
12.8681	12.7241	0.315975	0.659273
12.8686	12.7246	0.313985	0.704565
12.869	12.7251	0.313751	0.747252
12.8695	12.7255	0.312982	0.79154
12.87	12.726	0.315867	0.836818
12.8704	12.7265	0.315327	0.860195
12.8709	12.727	0.314573	0.870954
12.8714	12.7274	0.316815	0.887576
12.8719	12.7279	0.318565	0.908379
12.8723	12.7284	0.318528	0.915175
12.8728	12.7289	0.31683	0.921271
12.8733	12.7293	0.318365	0.928782
12.8737	12.7298	0.318424	0.929578
12.8742	12.7303	0.316798	0.930239
12.8747	12.7307	0.319227	0.944756
12.8752	12.7312	0.320075	0.948395
12.8756	12.7317	0.316757	0.938447
12.8761	12.7322	0.317245	0.941644
12.8766	12.7326	0.319563	0.947725
12.8771	12.7331	0.318019	0.955059
12.8775	12.7336	0.317899	0.95291
12.878	12.734	0.318022	0.956891
12.8785	12.7345	0.319406	0.953818
12.8789	12.735	0.318916	0.954293
12.8794	12.7355	0.318939	0.96235
12.8799	12.736	0.319011	0.961535
12.8804	12.7365	0.318156	0.958889
12.8808	12.7369	0.318632	0.960664
12.8813	12.7374	0.319037	0.963742
12.8818	12.7379	0.317909	0.963202
12.8822	12.7384	0.318594	0.965719
12.8827	12.7388	0.320821	0.967179
12.8832	12.7393	0.319915	0.963561
12.8837	12.7398	0.318971	0.963762
12.8841	12.7402	0.321577	0.970397
12.8846	12.7407	0.321076	0.97146
12.8851	12.7412	0.319056	0.966166
12.8856	12.7417	0.31995	0.96882
12.886	12.7421	0.320181	0.971422
12.8865	12.7426	0.320593	0.973418
12.887	12.743	0.321075	0.97324
12.8874	12.7435	0.320117	0.973105
12.8879	12.744	0.321289	0.97262
12.8884	12.7445	0.320319	0.972589
12.8889	12.7449	0.320362	0.976524
12.8893	12.7454	0.320513	0.979479
12.8898	12.7459	0.321458	0.975522
12.8903	12.7464	0.32153	0.975585
12.8907	12.7468	0.321363	0.976131
12.8912	12.7473	0.320723	0.979326
12.8917	12.7478	0.322559	0.982311
12.8922	12.7483	0.323092	0.982824
12.8926	12.7487	0.322169	0.976941
12.8931	12.7492	0.320025	0.975265
12.8936	12.7497	0.3224	0.981462
12.8941	12.7501	0.321803	0.981723
12.8945	12.7506	0.319976	0.977025
12.895	12.7511	0.322102	0.97892
12.8955	12.7515	0.321754	0.980585
12.8959	12.752	0.319096	0.979742
12.8964	12.7525	0.320629	0.98081
12.8969	12.7529	0.321885	0.98008
12.8974	12.7534	0.322356	0.979986
12.8978	12.7539	0.320311	0.976392
12.8983	12.7543	0.321272	0.983721
12.8988	12.7548	0.323083	0.98405
