# 1304     AichiSR QXAFS
# Start     : 8.9544
# End       : 9.0544
# Dir       : Forward
# Points    : 300
# ScanTime  : 1.01549
# Date      : 13.04.23 22:25
# Ring Cur. : 25.4[mA]
12.7557	12.7557	0.398131	1.21789
12.7562	12.7553	0.399271	1.21223
12.7566	12.7548	0.400297	1.21481
12.7571	12.7543	0.400436	1.21439
12.7576	12.7538	0.398239	1.21766
12.7581	12.7534	0.399031	1.2159
12.7585	12.7529	0.396936	1.21119
12.759	12.7524	0.398923	1.21295
12.7595	12.752	0.398601	1.2143
12.7599	12.7515	0.396613	1.2139
12.7604	12.751	0.396493	1.21158
12.7609	12.7506	0.396697	1.21008
12.7614	12.7501	0.398304	1.21012
12.7618	12.7496	0.397934	1.21479
12.7623	12.7492	0.399264	1.21426
12.7628	12.7487	0.397734	1.21318
12.7632	12.7482	0.397307	1.20827
12.7637	12.7478	0.398843	1.20878
12.7642	12.7473	0.398668	1.20907
12.7647	12.7468	0.395896	1.20883
12.7651	12.7463	0.396664	1.2064
12.7656	12.7459	0.396917	1.19889
12.7661	12.7454	0.397458	1.20463
12.7666	12.7449	0.396982	1.20656
12.767	12.7444	0.396772	1.20817
12.7675	12.7439	0.396213	1.20239
12.768	12.7435	0.394253	1.20174
12.7684	12.743	0.396725	1.20191
12.7689	12.7425	0.394825	1.20209
12.7694	12.7421	0.395668	1.20242
12.7699	12.7416	0.395077	1.20127
12.7703	12.7411	0.394567	1.1946
12.7708	12.7407	0.395554	1.19815
12.7713	12.7402	0.397587	1.19892
12.7717	12.7397	0.395122	1.19544
12.7722	12.7393	0.394579	1.19266
12.7727	12.7388	0.394938	1.19222
12.7732	12.7383	0.39482	1.19309
12.7736	12.7379	0.395371	1.19469
12.7741	12.7374	0.3943	1.19418
12.7746	12.7369	0.394196	1.19123
12.7751	12.7364	0.392901	1.18774
12.7755	12.7359	0.395733	1.18788
12.776	12.7355	0.396667	1.19102
12.7765	12.735	0.393637	1.18865
12.7769	12.7345	0.392844	1.18369
12.7774	12.734	0.393915	1.18071
12.7779	12.7335	0.397792	1.19176
12.7784	12.7331	0.397151	1.19015
12.7788	12.7326	0.393879	1.1798
12.7793	12.7321	0.393399	1.17452
12.7798	12.7317	0.393575	1.16912
12.7802	12.7312	0.393518	1.16646
12.7807	12.7307	0.392167	1.16715
12.7812	12.7302	0.39192	1.16282
12.7817	12.7298	0.392627	1.15676
12.7821	12.7293	0.391676	1.15036
12.7826	12.7288	0.394147	1.14953
12.7831	12.7284	0.39388	1.14309
12.7836	12.7279	0.390802	1.1372
12.784	12.7274	0.393708	1.12381
12.7845	12.727	0.391874	1.10897
12.785	12.7265	0.389755	1.09357
12.7854	12.726	0.390307	1.07553
12.7859	12.7255	0.38752	1.04545
12.7864	12.725	0.387317	1.00391
12.7869	12.7246	0.386923	0.958027
12.7873	12.7241	0.388425	0.906925
12.7878	12.7236	0.388832	0.846522
12.7883	12.7231	0.389507	0.78858
12.7887	12.7227	0.392139	0.733229
12.7892	12.7222	0.392572	0.685681
12.7897	12.7218	0.392909	0.651463
12.7902	12.7213	0.395629	0.632004
12.7906	12.7208	0.393016	0.619055
12.7911	12.7203	0.392711	0.608124
12.7916	12.7199	0.394862	0.606336
12.7921	12.7194	0.394923	0.612342
12.7925	12.719	0.395294	0.618292
12.793	12.7185	0.392308	0.622289
12.7935	12.718	0.392773	0.623708
12.7939	12.7175	0.394365	0.62343
12.7944	12.7171	0.393564	0.621623
12.7949	12.7166	0.394501	0.621679
12.7954	12.7161	0.393262	0.60932
12.7958	12.7156	0.393103	0.595243
12.7963	12.7152	0.394934	0.585135
12.7968	12.7147	0.394781	0.574373
12.7972	12.7142	0.395771	0.566176
12.7977	12.7137	0.393802	0.556717
12.7982	12.7133	0.39342	0.546108
12.7987	12.7128	0.394235	0.534751
12.7991	12.7123	0.394726	0.524104
12.7996	12.7119	0.395344	0.515561
12.8001	12.7114	0.39242	0.499958
12.8006	12.7109	0.394477	0.485771
12.801	12.7104	0.395007	0.472555
12.8015	12.71	0.395976	0.456548
12.802	12.7095	0.395504	0.441986
12.8024	12.709	0.393452	0.425387
12.8029	12.7086	0.394103	0.406055
12.8034	12.7081	0.396737	0.38968
12.8039	12.7076	0.396169	0.375553
12.8043	12.7071	0.396205	0.361941
12.8048	12.7067	0.395329	0.346357
12.8053	12.7062	0.394398	0.330831
12.8057	12.7057	0.396558	0.31977
12.8062	12.7052	0.395218	0.309206
12.8067	12.7047	0.395898	0.300439
12.8072	12.7043	0.395355	0.292758
12.8076	12.7038	0.395803	0.283999
12.8081	12.7033	0.39625	0.280484
12.8086	12.7028	0.396668	0.27864
12.8091	12.7024	0.39593	0.280172
12.8095	12.7019	0.396543	0.279602
12.81	12.7014	0.395421	0.279686
12.8105	12.701	0.396418	0.282834
12.8109	12.7005	0.397201	0.28849
12.8114	12.7	0.396364	0.293458
12.8119	12.6995	0.394187	0.296811
12.8124	12.6991	0.395178	0.300357
12.8128	12.6986	0.39699	0.305103
12.8133	12.6982	0.395327	0.309501
12.8138	12.6977	0.395784	0.314446
12.8142	12.6972	0.395815	0.318502
12.8147	12.6967	0.395556	0.318316
12.8152	12.6963	0.397933	0.319309
12.8157	12.6958	0.396688	0.322041
12.8161	12.6953	0.395015	0.321951
12.8166	12.6948	0.39652	0.320337
12.8171	12.6944	0.395064	0.315787
12.8176	12.6939	0.395258	0.312601
12.818	12.6934	0.396096	0.309258
12.8185	12.6929	0.396567	0.30569
12.819	12.6925	0.395566	0.300412
12.8194	12.692	0.393003	0.291109
12.8199	12.6916	0.397284	0.28716
12.8204	12.6911	0.396436	0.283785
12.8209	12.6906	0.396039	0.279055
12.8213	12.6901	0.395228	0.274546
12.8218	12.6897	0.39384	0.271925
12.8223	12.6892	0.396777	0.271645
12.8227	12.6888	0.395676	0.272093
12.8232	12.6883	0.394619	0.274491
12.8237	12.6878	0.395579	0.276649
12.8242	12.6873	0.39313	0.278952
12.8246	12.6869	0.395927	0.283828
12.8251	12.6864	0.394567	0.288022
12.8256	12.6859	0.393637	0.29279
12.8261	12.6854	0.393366	0.297416
12.8265	12.6849	0.393771	0.298693
12.827	12.6845	0.395065	0.304351
12.8275	12.684	0.395485	0.30851
12.8279	12.6835	0.39302	0.312041
12.8284	12.683	0.391595	0.31309
12.8289	12.6826	0.39319	0.314644
12.8294	12.6821	0.395882	0.317611
12.8298	12.6816	0.392927	0.32225
12.8303	12.6812	0.395396	0.326514
12.8308	12.6807	0.394506	0.32953
12.8312	12.6802	0.394769	0.33119
12.8317	12.6797	0.39802	0.335156
12.8322	12.6793	0.396145	0.337237
12.8327	12.6788	0.395595	0.339938
12.8331	12.6783	0.395782	0.340558
12.8336	12.6779	0.395571	0.339059
12.8341	12.6774	0.397402	0.340448
12.8346	12.6769	0.396529	0.341911
12.835	12.6764	0.396762	0.34339
12.8355	12.676	0.395425	0.340928
12.836	12.6755	0.39504	0.338804
12.8364	12.675	0.39603	0.338636
12.8369	12.6745	0.396111	0.339317
12.8374	12.674	0.394975	0.339496
12.8379	12.6736	0.395713	0.336636
12.8383	12.6731	0.393786	0.334319
12.8388	12.6726	0.397617	0.335042
12.8393	12.6722	0.396815	0.33222
12.8397	12.6717	0.394722	0.331847
12.8402	12.6712	0.395229	0.329696
12.8407	12.6708	0.394562	0.326011
12.8412	12.6703	0.39692	0.322663
12.8416	12.6698	0.395188	0.323668
12.8421	12.6693	0.395589	0.322741
12.8426	12.6689	0.394044	0.318511
12.8431	12.6684	0.39459	0.315356
12.8435	12.668	0.396725	0.312275
12.844	12.6675	0.394284	0.310779
12.8445	12.667	0.394116	0.309969
12.8449	12.6665	0.393949	0.306464
12.8454	12.6661	0.394875	0.300656
12.8459	12.6656	0.39527	0.298875
12.8464	12.6651	0.395266	0.299503
12.8468	12.6646	0.393373	0.297879
12.8473	12.6641	0.39423	0.294069
12.8478	12.6637	0.395237	0.290081
12.8482	12.6632	0.396361	0.288806
12.8487	12.6628	0.394058	0.289064
12.8492	12.6623	0.393689	0.286026
12.8497	12.6618	0.393411	0.28229
12.8501	12.6614	0.393853	0.279817
12.8506	12.6609	0.393342	0.277949
12.8511	12.6604	0.39315	0.277005
12.8516	12.6599	0.392713	0.277346
12.852	12.6595	0.393443	0.273963
12.8525	12.659	0.392732	0.272374
12.853	12.6585	0.394347	0.270174
12.8534	12.6581	0.394107	0.272343
12.8539	12.6576	0.392377	0.271181
12.8544	12.6571	0.392225	0.269677
12.8549	12.6566	0.393309	0.268356
12.8553	12.6562	0.393866	0.270123
12.8558	12.6557	0.392702	0.273021
12.8563	12.6552	0.392384	0.273091
12.8567	12.6547	0.392844	0.273571
12.8572	12.6542	0.393084	0.273953
12.8577	12.6538	0.393849	0.276038
12.8582	12.6533	0.392625	0.280602
12.8586	12.6528	0.391123	0.282401
12.8591	12.6524	0.391576	0.282794
12.8596	12.6519	0.393081	0.283556
12.8601	12.6514	0.393673	0.286451
12.8605	12.6509	0.39191	0.289906
12.861	12.6505	0.390978	0.292328
12.8615	12.65	0.393461	0.294242
12.8619	12.6495	0.392216	0.296544
12.8624	12.6491	0.393432	0.299271
12.8629	12.6486	0.393945	0.302542
12.8634	12.6481	0.391015	0.304859
12.8638	12.6476	0.38993	0.304133
12.8643	12.6472	0.390395	0.306055
12.8648	12.6467	0.389873	0.307514
12.8652	12.6462	0.389384	0.309437
12.8657	12.6457	0.386258	0.309943
12.8662	12.6452	0.385789	0.309826
12.8667	12.6448	0.38624	0.310784
12.8671	12.6443	0.387994	0.313049
12.8676	12.6438	0.387262	0.314879
12.8681	12.6434	0.388992	0.317387
12.8686	12.6429	0.389401	0.315068
12.869	12.6424	0.390861	0.315723
12.8695	12.642	0.390588	0.317807
12.87	12.6415	0.39126	0.320092
12.8704	12.641	0.389641	0.317737
12.8709	12.6405	0.389543	0.317331
12.8714	12.6401	0.389234	0.316275
12.8719	12.6396	0.39036	0.317021
12.8723	12.6391	0.390713	0.317219
12.8728	12.6387	0.389102	0.318211
12.8733	12.6382	0.390901	0.314406
12.8737	12.6377	0.390558	0.315343
12.8742	12.6373	0.391222	0.313673
12.8747	12.6368	0.390625	0.315194
12.8752	12.6363	0.388852	0.312803
12.8756	12.6358	0.388799	0.311826
12.8761	12.6354	0.388567	0.310352
12.8766	12.6349	0.389485	0.310409
12.8771	12.6344	0.390925	0.312544
12.8775	12.6339	0.389277	0.312023
12.878	12.6335	0.388786	0.311134
12.8785	12.633	0.389621	0.308467
12.8789	12.6325	0.38868	0.310232
12.8794	12.6321	0.389798	0.310094
12.8799	12.6316	0.387696	0.309975
12.8804	12.6311	0.388033	0.308704
12.8808	12.6307	0.390331	0.307526
12.8813	12.6302	0.390703	0.309858
12.8818	12.6297	0.388667	0.311705
12.8822	12.6293	0.388574	0.310894
12.8827	12.6288	0.388975	0.309862
12.8832	12.6283	0.389882	0.30896
12.8837	12.6278	0.388869	0.310809
12.8841	12.6274	0.387902	0.310846
12.8846	12.6269	0.388177	0.310295
12.8851	12.6264	0.386731	0.310168
12.8856	12.6259	0.387886	0.308047
12.886	12.6254	0.388419	0.308023
12.8865	12.625	0.387814	0.309289
12.887	12.6245	0.386714	0.307066
12.8874	12.624	0.386991	0.304258
12.8879	12.6235	0.389049	0.303887
12.8884	12.6231	0.38588	0.303853
12.8889	12.6226	0.38765	0.304092
12.8893	12.6221	0.38636	0.303854
12.8898	12.6217	0.386937	0.301229
12.8903	12.6212	0.388028	0.299811
12.8907	12.6207	0.387981	0.30196
12.8912	12.6202	0.387724	0.302032
12.8917	12.6198	0.385314	0.300597
12.8922	12.6193	0.385745	0.298882
12.8926	12.6188	0.387136	0.300103
12.8931	12.6184	0.385817	0.300904
12.8936	12.6179	0.386392	0.301718
12.8941	12.6174	0.385489	0.300744
12.8945	12.6169	0.38477	0.298211
12.895	12.6165	0.385162	0.297199
12.8955	12.616	0.385444	0.29906
12.8959	12.6155	0.384897	0.301038
12.8964	12.615	0.384719	0.299093
12.8969	12.6146	0.385821	0.299015
12.8974	12.6141	0.385869	0.297075
12.8978	12.6136	0.38618	0.297321
12.8983	12.6131	0.384581	0.298193
12.8988	12.6127	0.384648	0.298077
