# 1304     AichiSR QXAFS
# Start     : 8.9544
# End       : 9.0544
# Dir       : Forward
# Points    : 300
# ScanTime  : 1.01549
# Date      : 13.04.23 22:32
# Ring Cur. : 25.6[mA]
12.7557	12.7558	0.40457	1.2354
12.7562	12.7553	0.40449	1.23445
12.7566	12.7548	0.404935	1.23145
12.7571	12.7544	0.405602	1.23574
12.7576	12.7539	0.404921	1.2373
12.7581	12.7534	0.404858	1.23683
12.7585	12.753	0.40444	1.23443
12.759	12.7525	0.404997	1.23369
12.7595	12.752	0.404956	1.23521
12.7599	12.7516	0.405753	1.23664
12.7604	12.7511	0.404244	1.23644
12.7609	12.7506	0.404449	1.23219
12.7614	12.7501	0.406213	1.23158
12.7618	12.7497	0.405795	1.23487
12.7623	12.7492	0.406684	1.23577
12.7628	12.7488	0.404467	1.23522
12.7632	12.7483	0.40515	1.23257
12.7637	12.7478	0.40523	1.23172
12.7642	12.7474	0.404527	1.23491
12.7647	12.7469	0.406347	1.23608
12.7651	12.7464	0.405341	1.23631
12.7656	12.7459	0.405113	1.23397
12.7661	12.7454	0.406417	1.22913
12.7666	12.745	0.406519	1.23118
12.767	12.7445	0.405122	1.23556
12.7675	12.744	0.404641	1.23492
12.768	12.7435	0.405307	1.23176
12.7684	12.7431	0.406024	1.22855
12.7689	12.7426	0.405366	1.23203
12.7694	12.7421	0.407639	1.23277
12.7699	12.7417	0.406399	1.23311
12.7703	12.7412	0.40409	1.22908
12.7708	12.7407	0.407725	1.22567
12.7713	12.7403	0.404998	1.22973
12.7717	12.7398	0.406289	1.22878
12.7722	12.7393	0.405899	1.22586
12.7727	12.7389	0.406129	1.22603
12.7732	12.7384	0.405389	1.22716
12.7736	12.7379	0.405879	1.2274
12.7741	12.7374	0.405735	1.22677
12.7746	12.737	0.40529	1.22653
12.7751	12.7365	0.405316	1.22108
12.7755	12.736	0.407646	1.22117
12.776	12.7355	0.406761	1.22051
12.7765	12.735	0.404625	1.21989
12.7769	12.7346	0.403973	1.22154
12.7774	12.7341	0.403162	1.21458
12.7779	12.7336	0.405759	1.2123
12.7784	12.7331	0.405345	1.21301
12.7788	12.7327	0.404025	1.21415
12.7793	12.7322	0.404652	1.20966
12.7798	12.7317	0.404557	1.20707
12.7802	12.7313	0.406459	1.20537
12.7807	12.7308	0.405264	1.20078
12.7812	12.7303	0.405673	1.20185
12.7817	12.7298	0.403716	1.19385
12.7821	12.7294	0.40335	1.1877
12.7826	12.7289	0.405396	1.18244
12.7831	12.7284	0.404518	1.17956
12.7836	12.728	0.403337	1.17039
12.784	12.7275	0.403718	1.16011
12.7845	12.727	0.403379	1.14627
12.785	12.7265	0.402353	1.13047
12.7854	12.7261	0.402159	1.11365
12.7859	12.7256	0.400868	1.08981
12.7864	12.7251	0.399426	1.04962
12.7869	12.7246	0.397355	1.00659
12.7873	12.7242	0.39906	0.953319
12.7878	12.7237	0.399355	0.891459
12.7883	12.7232	0.401302	0.827779
12.7887	12.7228	0.402569	0.768096
12.7892	12.7223	0.404104	0.713187
12.7897	12.7218	0.405135	0.673505
12.7902	12.7214	0.404435	0.65003
12.7906	12.7209	0.403138	0.634821
12.7911	12.7204	0.403992	0.623728
12.7916	12.7199	0.404155	0.623111
12.7921	12.7195	0.404917	0.626428
12.7925	12.719	0.404505	0.631235
12.793	12.7185	0.403575	0.636774
12.7935	12.7181	0.404302	0.643402
12.7939	12.7176	0.402911	0.641474
12.7944	12.7171	0.405322	0.638619
12.7949	12.7167	0.40417	0.635281
12.7954	12.7162	0.402765	0.626451
12.7958	12.7157	0.403666	0.615408
12.7963	12.7152	0.402296	0.601412
12.7968	12.7147	0.40418	0.589695
12.7972	12.7143	0.403353	0.579701
12.7977	12.7138	0.401732	0.571329
12.7982	12.7133	0.402622	0.559455
12.7987	12.7129	0.402097	0.546629
12.7991	12.7124	0.403213	0.538262
12.7996	12.7119	0.403487	0.527829
12.8001	12.7115	0.401431	0.515359
12.8006	12.711	0.402439	0.500267
12.801	12.7105	0.402241	0.483996
12.8015	12.71	0.404074	0.470611
12.802	12.7096	0.403117	0.455404
12.8024	12.7091	0.402082	0.438412
12.8029	12.7086	0.401669	0.419025
12.8034	12.7082	0.401568	0.401183
12.8039	12.7077	0.402604	0.386366
12.8043	12.7072	0.401485	0.370481
12.8048	12.7067	0.402904	0.356215
12.8053	12.7062	0.400365	0.340397
12.8057	12.7058	0.401579	0.326884
12.8062	12.7053	0.403858	0.316161
12.8067	12.7048	0.401937	0.307392
12.8072	12.7043	0.401242	0.300192
12.8076	12.7038	0.401325	0.291697
12.8081	12.7034	0.401808	0.286115
12.8086	12.7029	0.403556	0.283137
12.8091	12.7024	0.402347	0.283426
12.8095	12.702	0.400801	0.283288
12.81	12.7015	0.39978	0.282933
12.8105	12.701	0.400746	0.285823
12.8109	12.7006	0.401811	0.290677
12.8114	12.7001	0.401867	0.295569
12.8119	12.6996	0.400021	0.300568
12.8124	12.6991	0.400929	0.303517
12.8128	12.6987	0.401641	0.306861
12.8133	12.6982	0.400636	0.312882
12.8138	12.6978	0.403738	0.319382
12.8142	12.6973	0.400633	0.319363
12.8147	12.6968	0.40054	0.321901
12.8152	12.6963	0.400648	0.322872
12.8157	12.6959	0.401533	0.32335
12.8161	12.6954	0.401791	0.326427
12.8166	12.6949	0.400792	0.324338
12.8171	12.6944	0.400262	0.321301
12.8176	12.6939	0.399632	0.317063
12.818	12.6935	0.399648	0.313627
12.8185	12.693	0.399847	0.310223
12.819	12.6925	0.40008	0.304644
12.8194	12.6921	0.399734	0.296967
12.8199	12.6916	0.399305	0.290082
12.8204	12.6912	0.401525	0.28549
12.8209	12.6907	0.400773	0.283751
12.8213	12.6902	0.398953	0.278298
12.8218	12.6897	0.398691	0.274809
12.8223	12.6893	0.399734	0.273179
12.8227	12.6888	0.400737	0.273288
12.8232	12.6884	0.399606	0.277599
12.8237	12.6879	0.397811	0.278959
12.8242	12.6874	0.397616	0.280256
12.8246	12.6869	0.397798	0.283489
12.8251	12.6864	0.397913	0.287319
12.8256	12.686	0.39742	0.294528
12.8261	12.6855	0.396242	0.297949
12.8265	12.685	0.396355	0.301239
12.827	12.6845	0.396265	0.303339
12.8275	12.684	0.396728	0.307303
12.8279	12.6836	0.395921	0.313121
12.8284	12.6831	0.395911	0.316116
12.8289	12.6826	0.396099	0.316504
12.8294	12.6822	0.397041	0.319879
12.8298	12.6817	0.396743	0.323236
12.8303	12.6812	0.398903	0.328249
12.8308	12.6808	0.398106	0.331336
12.8312	12.6803	0.396703	0.332271
12.8317	12.6798	0.398387	0.333584
12.8322	12.6793	0.397554	0.337221
12.8327	12.6789	0.399754	0.341737
12.8331	12.6784	0.397753	0.343172
12.8336	12.6779	0.39769	0.342164
12.8341	12.6775	0.397652	0.34175
12.8346	12.677	0.398976	0.342059
12.835	12.6765	0.398519	0.343865
12.8355	12.676	0.398077	0.342741
12.836	12.6755	0.398214	0.341873
12.8364	12.6751	0.39788	0.340318
12.8369	12.6746	0.398615	0.338599
12.8374	12.6741	0.399125	0.34037
12.8379	12.6736	0.397616	0.340155
12.8383	12.6732	0.396819	0.335871
12.8388	12.6727	0.397634	0.336241
12.8393	12.6722	0.396177	0.334969
12.8397	12.6718	0.395507	0.334252
12.8402	12.6713	0.39661	0.331251
12.8407	12.6708	0.396255	0.328819
12.8412	12.6703	0.396474	0.326004
12.8416	12.6699	0.397011	0.324464
12.8421	12.6694	0.397251	0.32406
12.8426	12.669	0.396167	0.319737
12.8431	12.6685	0.395549	0.315962
12.8435	12.668	0.397483	0.314036
12.844	12.6676	0.396463	0.311595
12.8445	12.6671	0.396265	0.310946
12.8449	12.6666	0.395646	0.308124
12.8454	12.6661	0.396611	0.303248
12.8459	12.6656	0.395158	0.301479
12.8464	12.6652	0.394781	0.299225
12.8468	12.6647	0.395718	0.298847
12.8473	12.6642	0.394098	0.296565
12.8478	12.6637	0.395214	0.291254
12.8482	12.6633	0.396645	0.291054
12.8487	12.6628	0.395722	0.289086
12.8492	12.6623	0.39401	0.287483
12.8497	12.6619	0.394565	0.285199
12.8501	12.6614	0.395623	0.282008
12.8506	12.6609	0.395475	0.278122
12.8511	12.6605	0.394817	0.278545
12.8516	12.66	0.394867	0.278187
12.852	12.6595	0.39137	0.274531
12.8525	12.6591	0.393209	0.272541
12.853	12.6586	0.394065	0.270715
12.8534	12.6581	0.393874	0.271322
12.8539	12.6577	0.392892	0.271076
12.8544	12.6572	0.392515	0.270959
12.8549	12.6567	0.392691	0.269385
12.8553	12.6562	0.394653	0.269993
12.8558	12.6557	0.392378	0.271704
12.8563	12.6553	0.392869	0.273958
12.8567	12.6548	0.393696	0.272926
12.8572	12.6543	0.390977	0.273332
12.8577	12.6538	0.393415	0.274813
12.8582	12.6534	0.392993	0.278758
12.8586	12.6529	0.391868	0.281773
12.8591	12.6524	0.392654	0.281193
12.8596	12.652	0.392647	0.283709
12.8601	12.6515	0.394628	0.28621
12.8605	12.651	0.391902	0.289383
12.861	12.6505	0.391976	0.293057
12.8615	12.65	0.39279	0.294147
12.8619	12.6496	0.391167	0.295281
12.8624	12.6491	0.393036	0.29783
12.8629	12.6487	0.391534	0.300613
12.8634	12.6482	0.3911	0.302764
12.8638	12.6477	0.390681	0.305538
12.8643	12.6472	0.388871	0.305361
12.8648	12.6467	0.392716	0.307596
12.8652	12.6463	0.391486	0.31214
12.8657	12.6458	0.389635	0.310919
12.8662	12.6453	0.387254	0.309106
12.8667	12.6448	0.385698	0.309997
12.8671	12.6444	0.387143	0.311428
12.8676	12.6439	0.389506	0.313466
12.8681	12.6434	0.387718	0.316908
12.8686	12.6429	0.389494	0.315324
12.869	12.6425	0.389134	0.317374
12.8695	12.642	0.392152	0.317633
12.87	12.6416	0.391128	0.319259
12.8704	12.6411	0.389873	0.320751
12.8709	12.6406	0.388978	0.317254
12.8714	12.6401	0.387614	0.315289
12.8719	12.6397	0.389519	0.317751
12.8723	12.6392	0.390415	0.31825
12.8728	12.6387	0.387907	0.317558
12.8733	12.6383	0.390742	0.316662
12.8737	12.6378	0.391421	0.315137
12.8742	12.6373	0.390967	0.314118
12.8747	12.6369	0.389858	0.315282
12.8752	12.6364	0.391594	0.316272
12.8756	12.6359	0.388546	0.313597
12.8761	12.6354	0.388758	0.311884
12.8766	12.6349	0.392407	0.311286
12.8771	12.6345	0.390232	0.313436
12.8775	12.634	0.390827	0.313953
12.878	12.6335	0.390563	0.312008
12.8785	12.6331	0.389637	0.310142
12.8789	12.6326	0.39212	0.310782
12.8794	12.6321	0.39224	0.311542
12.8799	12.6317	0.392196	0.31263
12.8804	12.6312	0.390795	0.3127
12.8808	12.6307	0.391311	0.312258
12.8813	12.6302	0.391986	0.310834
12.8818	12.6298	0.392101	0.313694
12.8822	12.6293	0.390744	0.313991
12.8827	12.6288	0.391481	0.31351
12.8832	12.6284	0.391453	0.312334
12.8837	12.6279	0.392195	0.312544
12.8841	12.6274	0.393033	0.314367
12.8846	12.627	0.393267	0.314849
12.8851	12.6265	0.391473	0.313309
12.8856	12.626	0.391771	0.31135
12.886	12.6255	0.394591	0.311759
12.8865	12.625	0.39252	0.31208
12.887	12.6246	0.391589	0.311756
12.8874	12.6241	0.392215	0.308907
12.8879	12.6236	0.390925	0.309788
12.8884	12.6231	0.39207	0.307949
12.8889	12.6227	0.393416	0.309073
12.8893	12.6222	0.392952	0.307621
12.8898	12.6217	0.389769	0.307115
12.8903	12.6213	0.391946	0.304892
12.8907	12.6208	0.393094	0.305025
12.8912	12.6203	0.393588	0.306962
12.8917	12.6198	0.391245	0.306616
12.8922	12.6194	0.390816	0.305698
12.8926	12.6189	0.392015	0.304534
12.8931	12.6184	0.394412	0.30472
12.8936	12.618	0.394164	0.306128
12.8941	12.6175	0.392019	0.306824
12.8945	12.617	0.391844	0.305812
12.895	12.6165	0.391832	0.303543
12.8955	12.616	0.394587	0.305632
12.8959	12.6156	0.392551	0.305884
12.8964	12.6151	0.391825	0.304873
12.8969	12.6146	0.392013	0.303384
12.8974	12.6141	0.391783	0.302263
12.8978	12.6137	0.392445	0.303122
12.8983	12.6132	0.393234	0.304001
12.8988	12.6127	0.392452	0.303457
